,date,expName,psychopyVersion,OS,frameRate,idm_task,item,cpdm_acc,cpdm_pract_conf,cpdm_trial_type,cpdm_gabor_orient,cpdm_gabor_contrast,cpdm_run_dimension,cpdm_conf,cpdm_conf2,cpdm_money,cpdm_trial_resp.keys,cpdm_trial_resp.rt,cpdm_delta_time,cpdm_iti_time,cpdm_trials1.thisTrialN,cpdm_trials1.thisIndex,cpdm_catch_trial
48,2023-01-30_23h45.21.772,idm-v2,2022.2.4,Win32,40.01760775,cpdm,5.0,0.0,,practice,-2.5,0.1,,,,,,,,,,,
49,2023-01-30_23h45.21.772,idm-v2,2022.2.4,Win32,40.01760775,cpdm,2.0,0.0,,practice,2.0,0.05,,,,,,,,,,,
50,2023-01-30_23h45.21.772,idm-v2,2022.2.4,Win32,40.01760775,cpdm,4.0,1.0,1.0,practice,-2.0,0.25,,,,,,,,,,,
51,2023-01-30_23h45.21.772,idm-v2,2022.2.4,Win32,40.01760775,cpdm,1.0,0.0,1.0,practice,2.5,0.025,,,,,,,,,,,
52,2023-01-30_23h45.21.772,idm-v2,2022.2.4,Win32,40.01760775,cpdm,3.0,0.0,1.0,practice,0.0,0.2,,,,,,,,,,,
53,2023-01-30_23h45.21.772,idm-v2,2022.2.4,Win32,40.01760775,cpdm,42.0,1.0,,task,-3.0,0.2,low_vol_high_risk,1.0,high,13.0,q,0.6493,1.0383,2.546010867,0.0,41.0,0.0
54,2023-01-30_23h45.21.772,idm-v2,2022.2.4,Win32,40.01760775,cpdm,52.0,1.0,,task,-2.0,0.2,low_vol_high_risk,1.0,high,13.0,q,0.5804,1.0145,1.86613977,1.0,51.0,0.0
55,2023-01-30_23h45.21.772,idm-v2,2022.2.4,Win32,40.01760775,cpdm,181.0,1.0,,task,-4.0,0.2,low_vol_high_risk,1.0,high,13.0,q,0.6327,1.0441,2.672547426,2.0,180.0,0.0
56,2023-01-30_23h45.21.772,idm-v2,2022.2.4,Win32,40.01760775,cpdm,33.0,0.0,,task,3.5,0.05,low_vol_high_risk,0.0,low,2.0,a,0.655,1.0209,2.508200454,3.0,32.0,0.0
57,2023-01-30_23h45.21.772,idm-v2,2022.2.4,Win32,40.01760775,cpdm,185.0,1.0,,task,-3.0,0.05,low_vol_high_risk,1.0,high,13.0,q,1.1546,0.5451,1.394381819,4.0,184.0,0.0
58,2023-01-30_23h45.21.772,idm-v2,2022.2.4,Win32,40.01760775,cpdm,136.0,1.0,,task,-1.0,0.05,low_vol_high_risk,1.0,high,13.0,q,0.6546,1.0211,1.766014815,5.0,135.0,0.0
59,2023-01-30_23h45.21.772,idm-v2,2022.2.4,Win32,40.01760775,cpdm,24.0,1.0,,task,0.0,0.05,low_vol_high_risk,1.0,high,13.0,q,0.6779,0.9984,2.484664369,6.0,23.0,0.0
60,2023-01-30_23h45.21.772,idm-v2,2022.2.4,Win32,40.01760775,cpdm,69.0,1.0,,task,-3.0,0.05,low_vol_high_risk,1.0,high,13.0,q,0.5597,1.1383,2.799500806,7.0,68.0,0.0
61,2023-01-30_23h45.21.772,idm-v2,2022.2.4,Win32,40.01760775,cpdm,99.0,1.0,,task,-2.5,0.05,low_vol_high_risk,1.0,high,13.0,q,0.528,1.1689,2.062715559,8.0,98.0,0.0
62,2023-01-30_23h45.21.772,idm-v2,2022.2.4,Win32,40.01760775,cpdm,29.0,1.0,,task,3.5,0.2,low_vol_high_risk,1.0,high,13.0,p,0.5469,1.1292,1.378584714,9.0,28.0,0.0
63,2023-01-30_23h45.21.772,idm-v2,2022.2.4,Win32,40.01760775,cpdm,177.0,1.0,,task,-2.5,0.05,low_vol_high_risk,1.0,high,13.0,q,0.53,1.1592,2.48536189,10.0,176.0,0.0
64,2023-01-30_23h45.21.772,idm-v2,2022.2.4,Win32,40.01760775,cpdm,118.0,1.0,,task,5.0,0.2,low_vol_high_risk,1.0,high,13.0,p,0.7193,0.9621,1.901925952,11.0,117.0,1.0
65,2023-01-30_23h45.21.772,idm-v2,2022.2.4,Win32,40.01760775,cpdm,119.0,1.0,,task,-5.0,0.05,low_vol_high_risk,1.0,high,13.0,q,0.4553,1.2193,3.132656848,12.0,118.0,0.0
66,2023-01-30_23h45.21.772,idm-v2,2022.2.4,Win32,40.01760775,cpdm,114.0,1.0,,task,-4.5,0.2,low_vol_high_risk,1.0,high,13.0,q,0.679,0.9968,1.190079176,13.0,113.0,1.0
67,2023-01-30_23h45.21.772,idm-v2,2022.2.4,Win32,40.01760775,cpdm,150.0,0.0,,task,0.5,0.05,low_vol_high_risk,0.0,low,2.0,a,1.2547,0.4303,1.03492308,14.0,149.0,0.0
68,2023-01-30_23h45.21.772,idm-v2,2022.2.4,Win32,40.01760775,cpdm,72.0,1.0,,task,4.0,0.05,low_vol_high_risk,1.0,high,13.0,p,0.8841,0.8156,1.521492041,15.0,71.0,0.0
69,2023-01-30_23h45.21.772,idm-v2,2022.2.4,Win32,40.01760775,cpdm,162.0,1.0,,task,0.5,0.2,low_vol_high_risk,0.0,low,8.0,l,1.2534,0.4218,1.603710926,16.0,161.0,0.0
70,2023-01-30_23h45.21.772,idm-v2,2022.2.4,Win32,40.01760775,cpdm,63.0,1.0,,task,-0.5,0.2,low_vol_high_risk,0.0,low,8.0,a,0.8539,0.8216,1.71697213,17.0,62.0,0.0
71,2023-01-30_23h45.21.772,idm-v2,2022.2.4,Win32,40.01760775,cpdm,133.0,1.0,,task,-2.5,0.2,low_vol_high_risk,1.0,high,13.0,q,0.4791,1.0038,2.632089306,18.0,132.0,0.0
72,2023-01-30_23h45.21.772,idm-v2,2022.2.4,Win32,40.01760775,cpdm,102.0,1.0,,task,2.0,0.2,low_vol_high_risk,1.0,high,13.0,p,0.5289,1.1212,1.919550077,19.0,101.0,0.0
73,2023-01-30_23h45.21.772,idm-v2,2022.2.4,Win32,40.01760775,cpdm,22.0,1.0,,task,1.0,0.05,low_vol_high_risk,0.0,low,8.0,l,0.9299,0.7697,1.113556711,20.0,21.0,0.0
74,2023-01-30_23h45.21.772,idm-v2,2022.2.4,Win32,40.01760775,cpdm,71.0,1.0,,task,-4.0,0.05,low_vol_high_risk,1.0,high,13.0,q,0.605,1.07,2.957110494,21.0,70.0,0.0
75,2023-01-30_23h45.21.772,idm-v2,2022.2.4,Win32,40.01760775,cpdm,74.0,1.0,,task,4.5,0.05,low_vol_high_risk,1.0,high,13.0,p,0.629,1.046,1.263399375,22.0,73.0,0.0
76,2023-01-30_23h45.21.772,idm-v2,2022.2.4,Win32,40.01760775,cpdm,49.0,0.0,,task,0.0,0.05,low_vol_high_risk,0.0,low,2.0,l,0.7293,0.7795,1.207224964,23.0,48.0,0.0
77,2023-01-30_23h45.21.772,idm-v2,2022.2.4,Win32,40.01760775,cpdm,178.0,1.0,,task,1.5,0.05,low_vol_high_risk,1.0,high,13.0,p,0.9538,0.7214,2.110876531,24.0,177.0,0.0
78,2023-01-30_23h45.21.772,idm-v2,2022.2.4,Win32,40.01760775,cpdm,120.0,1.0,,task,1.5,0.2,low_vol_high_risk,1.0,high,13.0,p,0.5793,0.868,1.373356081,25.0,119.0,0.0
79,2023-01-30_23h45.21.772,idm-v2,2022.2.4,Win32,40.01760775,cpdm,169.0,1.0,,task,-1.5,0.05,low_vol_high_risk,1.0,high,13.0,q,0.7553,0.9329,1.996632059,26.0,168.0,0.0
80,2023-01-30_23h45.21.772,idm-v2,2022.2.4,Win32,40.01760775,cpdm,10.0,1.0,,task,2.5,0.2,low_vol_high_risk,1.0,high,13.0,p,0.4041,1.2716,2.758532716,27.0,9.0,0.0
81,2023-01-30_23h45.21.772,idm-v2,2022.2.4,Win32,40.01760775,cpdm,196.0,1.0,,task,-4.5,0.05,low_vol_high_risk,1.0,high,13.0,q,0.5801,1.0959,2.51798714,28.0,195.0,0.0
82,2023-01-30_23h45.21.772,idm-v2,2022.2.4,Win32,40.01760775,cpdm,126.0,1.0,,task,-3.5,0.2,low_vol_high_risk,1.0,high,13.0,q,0.4548,1.2204,2.653725535,29.0,125.0,0.0
83,2023-01-30_23h45.21.772,idm-v2,2022.2.4,Win32,40.01760775,cpdm,13.0,1.0,,task,4.0,0.05,low_vol_high_risk,1.0,high,13.0,p,0.5073,1.1748,1.567332251,30.0,12.0,0.0
84,2023-01-30_23h45.21.772,idm-v2,2022.2.4,Win32,40.01760775,cpdm,161.0,1.0,,task,3.0,0.05,low_vol_high_risk,0.0,low,8.0,l,1.0629,0.6241,1.625657255,31.0,160.0,0.0
85,2023-01-30_23h45.21.772,idm-v2,2022.2.4,Win32,40.01760775,cpdm,176.0,1.0,,task,2.5,0.2,low_vol_high_risk,1.0,high,13.0,p,0.7274,0.9428,1.157779932,32.0,175.0,0.0
86,2023-01-30_23h45.21.772,idm-v2,2022.2.4,Win32,40.01760775,cpdm,86.0,0.0,,task,-0.5,0.05,low_vol_high_risk,0.0,low,2.0,l,0.8046,0.8461,1.7769811,33.0,85.0,0.0
87,2023-01-30_23h45.21.772,idm-v2,2022.2.4,Win32,40.01760775,cpdm,76.0,1.0,,task,2.5,0.2,low_vol_high_risk,1.0,high,13.0,p,1.06,0.6153,2.215921223,34.0,75.0,0.0
88,2023-01-30_23h45.21.772,idm-v2,2022.2.4,Win32,40.01760775,cpdm,77.0,0.0,,task,-0.5,0.05,low_vol_high_risk,0.0,low,2.0,l,1.2307,0.4577,0.741417836,35.0,76.0,0.0
89,2023-01-30_23h45.21.772,idm-v2,2022.2.4,Win32,40.01760775,cpdm,123.0,1.0,,task,-4.5,0.05,low_vol_high_risk,1.0,high,13.0,q,0.6819,1.01,1.407734094,36.0,122.0,0.0
90,2023-01-30_23h45.21.772,idm-v2,2022.2.4,Win32,40.01760775,cpdm,96.0,1.0,,task,4.0,0.2,low_vol_high_risk,1.0,high,13.0,p,0.5035,1.1719,2.14954389,37.0,95.0,0.0
91,2023-01-30_23h45.21.772,idm-v2,2022.2.4,Win32,40.01760775,cpdm,186.0,1.0,,task,3.5,0.2,low_vol_high_risk,1.0,high,13.0,p,0.4801,1.1958,2.705164027,38.0,185.0,0.0
92,2023-01-30_23h45.21.772,idm-v2,2022.2.4,Win32,40.01760775,cpdm,81.0,1.0,,task,2.5,0.05,low_vol_high_risk,1.0,high,13.0,p,0.4537,1.2215,2.257922906,39.0,80.0,0.0
93,2023-01-30_23h45.21.772,idm-v2,2022.2.4,Win32,40.01760775,cpdm,156.0,1.0,,task,-1.0,0.2,low_vol_high_risk,1.0,high,13.0,q,1.0042,0.6665,2.539799468,40.0,155.0,0.0
94,2023-01-30_23h45.21.772,idm-v2,2022.2.4,Win32,40.01760775,cpdm,167.0,1.0,,task,5.0,0.05,low_vol_high_risk,1.0,high,13.0,p,0.4822,1.1929,2.611818429,41.0,166.0,0.0
95,2023-01-30_23h45.21.772,idm-v2,2022.2.4,Win32,40.01760775,cpdm,88.0,1.0,,task,4.5,0.05,low_vol_high_risk,1.0,high,13.0,p,0.4311,1.2182,1.545337753,42.0,87.0,0.0
96,2023-01-30_23h45.21.772,idm-v2,2022.2.4,Win32,40.01760775,cpdm,85.0,1.0,,task,-2.0,0.2,low_vol_high_risk,1.0,high,13.0,q,0.7864,0.8892,2.356612484,43.0,84.0,0.0
97,2023-01-30_23h45.21.772,idm-v2,2022.2.4,Win32,40.01760775,cpdm,37.0,1.0,,task,-4.0,0.05,low_vol_high_risk,1.0,high,13.0,q,0.5549,1.1209,2.354443402,44.0,36.0,0.0
98,2023-01-30_23h45.21.772,idm-v2,2022.2.4,Win32,40.01760775,cpdm,43.0,1.0,,task,-3.5,0.2,low_vol_high_risk,1.0,high,13.0,q,0.7946,0.8872,2.350895017,45.0,42.0,0.0
99,2023-01-30_23h45.21.772,idm-v2,2022.2.4,Win32,40.01760775,cpdm,166.0,1.0,,task,1.5,0.2,low_vol_high_risk,1.0,high,13.0,p,0.8789,0.8128,2.451109749,46.0,165.0,0.0
100,2023-01-30_23h45.21.772,idm-v2,2022.2.4,Win32,40.01760775,cpdm,55.0,1.0,,task,-3.0,0.05,low_vol_high_risk,1.0,high,13.0,q,0.5813,1.0946,2.683570243,47.0,54.0,0.0
101,2023-01-30_23h45.21.772,idm-v2,2022.2.4,Win32,40.01760775,cpdm,155.0,1.0,,task,-5.0,0.05,low_vol_high_risk,1.0,high,13.0,q,0.458,1.2176,1.672272918,48.0,154.0,0.0
102,2023-01-30_23h45.21.772,idm-v2,2022.2.4,Win32,40.01760775,cpdm,26.0,1.0,,task,-4.5,0.2,low_vol_high_risk,1.0,high,13.0,q,0.4069,1.2689,3.201453305,49.0,25.0,1.0
103,2023-01-30_23h45.21.772,idm-v2,2022.2.4,Win32,40.01760775,cpdm,190.0,1.0,,task,1.0,0.05,low_vol_high_risk,1.0,high,13.0,p,0.9019,0.7805,0.902907397,50.0,189.0,0.0
104,2023-01-30_23h45.21.772,idm-v2,2022.2.4,Win32,40.01760775,cpdm,171.0,1.0,,task,-5.0,0.2,low_vol_high_risk,1.0,high,13.0,q,0.6546,1.0206,2.424112463,51.0,170.0,1.0
105,2023-01-30_23h45.21.772,idm-v2,2022.2.4,Win32,40.01760775,cpdm,198.0,1.0,,task,-1.0,0.05,low_vol_high_risk,1.0,high,13.0,q,0.4774,1.2219,1.802046234,52.0,197.0,0.0
106,2023-01-30_23h45.21.772,idm-v2,2022.2.4,Win32,40.01760775,cpdm,101.0,1.0,,task,2.0,0.05,low_vol_high_risk,1.0,high,13.0,p,0.7544,0.9217,1.776919481,53.0,100.0,0.0
107,2023-01-30_23h45.21.772,idm-v2,2022.2.4,Win32,40.01760775,cpdm,200.0,1.0,,task,2.0,0.2,low_vol_high_risk,1.0,high,13.0,p,0.5289,1.1401,2.514902357,54.0,199.0,0.0
108,2023-01-30_23h45.21.772,idm-v2,2022.2.4,Win32,40.01760775,cpdm,18.0,0.0,,task,-1.0,0.2,low_vol_high_risk,0.0,low,2.0,l,1.2139,0.479,0.928080707,55.0,17.0,0.0
109,2023-01-30_23h45.21.772,idm-v2,2022.2.4,Win32,40.01760775,cpdm,36.0,1.0,,task,-5.0,0.2,low_vol_high_risk,1.0,high,13.0,q,0.705,0.9944,1.605354863,56.0,35.0,1.0
110,2023-01-30_23h45.21.772,idm-v2,2022.2.4,Win32,40.01760775,cpdm,70.0,0.0,,task,0.5,0.2,low_vol_high_risk,0.0,low,2.0,a,1.4792,0.1959,1.060886311,57.0,69.0,0.0
111,2023-01-30_23h45.21.772,idm-v2,2022.2.4,Win32,40.01760775,cpdm,165.0,1.0,,task,3.0,0.05,low_vol_high_risk,1.0,high,13.0,p,0.7238,0.9578,1.922491388,58.0,164.0,0.0
112,2023-01-30_23h45.21.772,idm-v2,2022.2.4,Win32,40.01760775,cpdm,80.0,1.0,,task,-1.5,0.2,low_vol_high_risk,1.0,high,13.0,q,0.5294,1.1699,1.782750316,59.0,79.0,0.0
113,2023-01-30_23h45.21.772,idm-v2,2022.2.4,Win32,40.01760775,cpdm,153.0,1.0,,task,1.5,0.05,low_vol_high_risk,1.0,high,13.0,p,0.6306,1.0444,2.663522885,60.0,152.0,0.0
114,2023-01-30_23h45.21.772,idm-v2,2022.2.4,Win32,40.01760775,cpdm,132.0,1.0,,task,-2.5,0.05,low_vol_high_risk,1.0,high,13.0,q,0.5042,1.1841,1.348521665,61.0,131.0,0.0
115,2023-01-30_23h45.21.772,idm-v2,2022.2.4,Win32,40.01760775,cpdm,79.0,1.0,,task,-1.5,0.2,low_vol_high_risk,1.0,high,13.0,q,0.6792,0.9976,2.653355991,62.0,78.0,0.0
116,2023-01-30_23h45.21.772,idm-v2,2022.2.4,Win32,40.01760775,cpdm,94.0,1.0,,task,2.0,0.2,low_vol_high_risk,1.0,high,13.0,p,0.7556,0.9212,1.605207524,63.0,93.0,0.0
117,2023-01-30_23h45.21.772,idm-v2,2022.2.4,Win32,40.01760775,cpdm,135.0,1.0,,task,-2.0,0.2,low_vol_high_risk,1.0,high,13.0,q,0.4297,1.2541,1.56704798,64.0,134.0,0.0
118,2023-01-30_23h45.21.772,idm-v2,2022.2.4,Win32,40.01760775,cpdm,104.0,1.0,,task,1.0,0.05,low_vol_high_risk,1.0,high,13.0,p,0.5591,1.1278,2.367335704,65.0,103.0,0.0
119,2023-01-30_23h45.21.772,idm-v2,2022.2.4,Win32,40.01760775,cpdm,11.0,1.0,,task,-1.5,0.05,low_vol_high_risk,1.0,high,13.0,q,0.9494,0.7261,1.559427704,66.0,10.0,0.0
120,2023-01-30_23h45.21.772,idm-v2,2022.2.4,Win32,40.01760775,cpdm,195.0,1.0,,task,1.5,0.2,low_vol_high_risk,1.0,high,13.0,p,0.6298,1.0457,2.719860357,67.0,194.0,0.0
121,2023-01-30_23h45.21.772,idm-v2,2022.2.4,Win32,40.01760775,cpdm,151.0,1.0,,task,-2.5,0.05,low_vol_high_risk,0.0,low,8.0,a,0.9227,0.753,1.824975515,68.0,150.0,0.0
122,2023-01-30_23h45.21.772,idm-v2,2022.2.4,Win32,40.01760775,cpdm,148.0,1.0,,task,0.5,0.05,low_vol_high_risk,0.0,low,8.0,l,0.7899,0.9095,1.979950403,69.0,147.0,0.0
123,2023-01-30_23h45.21.772,idm-v2,2022.2.4,Win32,40.01760775,cpdm,2.0,1.0,,task,-1.5,0.2,low_vol_high_risk,0.0,low,8.0,a,0.8605,0.8148,1.628618034,70.0,1.0,0.0
124,2023-01-30_23h45.21.772,idm-v2,2022.2.4,Win32,40.01760775,cpdm,152.0,1.0,,task,-1.5,0.05,low_vol_high_risk,0.0,low,8.0,a,0.9295,0.7567,0.943445798,71.0,151.0,0.0
125,2023-01-30_23h45.21.772,idm-v2,2022.2.4,Win32,40.01760775,cpdm,193.0,1.0,,task,4.5,0.2,low_vol_high_risk,0.0,low,8.0,l,1.6107,0.0892,0.981456069,72.0,192.0,1.0
126,2023-01-30_23h45.21.772,idm-v2,2022.2.4,Win32,40.01760775,cpdm,141.0,0.0,,task,-2.0,0.05,low_vol_high_risk,0.0,low,2.0,l,1.8563,0.0,0.823892957,73.0,140.0,0.0
127,2023-01-30_23h45.21.772,idm-v2,2022.2.4,Win32,40.01760775,cpdm,98.0,0.0,,task,-1.0,0.05,low_vol_high_risk,0.0,low,2.0,l,1.8983,0.0,0.295442876,74.0,97.0,0.0
128,2023-01-30_23h45.21.772,idm-v2,2022.2.4,Win32,40.01760775,cpdm,192.0,1.0,,task,0.0,0.2,low_vol_high_risk,0.0,low,8.0,l,0.6047,1.0722,2.211084729,75.0,191.0,0.0
129,2023-01-30_23h45.21.772,idm-v2,2022.2.4,Win32,40.01760775,cpdm,41.0,1.0,,task,-3.0,0.2,low_vol_high_risk,1.0,high,13.0,q,0.581,1.0946,1.940979543,76.0,40.0,0.0
130,2023-01-30_23h45.21.772,idm-v2,2022.2.4,Win32,40.01760775,cpdm,75.0,1.0,,task,4.5,0.2,low_vol_high_risk,1.0,high,13.0,p,0.3978,1.2772,2.068745597,77.0,74.0,1.0
131,2023-01-30_23h45.21.772,idm-v2,2022.2.4,Win32,40.01760775,cpdm,87.0,0.0,,task,0.5,0.05,low_vol_high_risk,1.0,high,0.0,q,0.9556,0.722,2.258442424,78.0,86.0,0.0
132,2023-01-30_23h45.21.772,idm-v2,2022.2.4,Win32,40.01760775,cpdm,82.0,1.0,,task,-4.0,0.2,low_vol_high_risk,1.0,high,13.0,q,0.9033,0.7964,2.093436193,79.0,81.0,0.0
133,2023-01-30_23h45.21.772,idm-v2,2022.2.4,Win32,40.01760775,cpdm,182.0,1.0,,task,-4.5,0.2,low_vol_high_risk,1.0,high,13.0,q,0.4538,1.2217,2.148099402,80.0,181.0,1.0
134,2023-01-30_23h45.21.772,idm-v2,2022.2.4,Win32,40.01760775,cpdm,134.0,1.0,,task,5.0,0.2,low_vol_high_risk,1.0,high,13.0,p,0.496,1.1935,2.396356214,81.0,133.0,1.0
135,2023-01-30_23h45.21.772,idm-v2,2022.2.4,Win32,40.01760775,cpdm,112.0,1.0,,task,4.0,0.2,low_vol_high_risk,1.0,high,13.0,p,0.4055,1.2718,2.422421858,82.0,111.0,0.0
136,2023-01-30_23h45.21.772,idm-v2,2022.2.4,Win32,40.01760775,cpdm,9.0,1.0,,task,0.5,0.2,low_vol_high_risk,0.0,low,8.0,l,0.9535,0.7216,1.388305122,83.0,8.0,0.0
137,2023-01-30_23h45.21.772,idm-v2,2022.2.4,Win32,40.01760775,cpdm,7.0,1.0,,task,-3.0,0.05,low_vol_high_risk,0.0,low,8.0,a,1.0064,0.6692,1.211087445,84.0,6.0,0.0
138,2023-01-30_23h45.21.772,idm-v2,2022.2.4,Win32,40.01760775,cpdm,67.0,1.0,,task,-0.5,0.2,low_vol_high_risk,0.0,low,8.0,a,1.1041,0.5722,2.288848455,85.0,66.0,0.0
139,2023-01-30_23h45.21.772,idm-v2,2022.2.4,Win32,40.01760775,cpdm,93.0,0.0,,task,0.0,0.2,low_vol_high_risk,0.0,low,2.0,a,1.2009,0.4754,0.5314439,86.0,92.0,0.0
140,2023-01-30_23h45.21.772,idm-v2,2022.2.4,Win32,40.01760775,cpdm,28.0,1.0,,task,1.0,0.2,low_vol_high_risk,0.0,low,8.0,l,1.0604,0.6389,1.158538322,87.0,27.0,0.0
141,2023-01-30_23h45.21.772,idm-v2,2022.2.4,Win32,40.01760775,cpdm,143.0,1.0,,task,2.0,0.05,low_vol_high_risk,1.0,high,13.0,p,0.6006,1.0984,2.529055354,88.0,142.0,0.0
142,2023-01-30_23h45.21.772,idm-v2,2022.2.4,Win32,40.01760775,cpdm,31.0,1.0,,task,4.5,0.2,low_vol_high_risk,1.0,high,13.0,p,0.4523,1.2464,1.81356731,89.0,30.0,1.0
143,2023-01-30_23h45.21.772,idm-v2,2022.2.4,Win32,40.01760775,cpdm,78.0,1.0,,task,3.0,0.2,low_vol_high_risk,1.0,high,13.0,p,0.4296,1.2676,2.071314373,90.0,77.0,0.0
144,2023-01-30_23h45.21.772,idm-v2,2022.2.4,Win32,40.01760775,cpdm,106.0,1.0,,task,-0.5,0.2,low_vol_high_risk,0.0,low,8.0,a,0.8011,0.898,1.354445339,91.0,105.0,0.0
145,2023-01-30_23h45.21.772,idm-v2,2022.2.4,Win32,40.01760775,cpdm,35.0,1.0,,task,-1.0,0.2,low_vol_high_risk,0.0,low,8.0,a,0.6373,1.0383,1.570609763,92.0,34.0,0.0
146,2023-01-30_23h45.21.772,idm-v2,2022.2.4,Win32,40.01760775,cpdm,109.0,1.0,,task,2.0,0.05,low_vol_high_risk,0.0,low,8.0,l,0.8338,0.849,2.066947554,93.0,108.0,0.0
147,2023-01-30_23h45.21.772,idm-v2,2022.2.4,Win32,40.01760775,cpdm,14.0,0.0,,task,-4.5,0.05,low_vol_high_risk,0.0,low,2.0,l,1.0663,0.6091,2.478536018,94.0,13.0,0.0
148,2023-01-30_23h45.21.772,idm-v2,2022.2.4,Win32,40.01760775,cpdm,170.0,1.0,,task,-4.0,0.2,low_vol_high_risk,1.0,high,13.0,q,0.6543,1.0454,1.730109974,95.0,169.0,0.0
149,2023-01-30_23h45.21.772,idm-v2,2022.2.4,Win32,40.01760775,cpdm,89.0,1.0,,task,2.5,0.2,low_vol_high_risk,1.0,high,13.0,p,0.4044,1.2829,2.345234813,96.0,88.0,0.0
150,2023-01-30_23h45.21.772,idm-v2,2022.2.4,Win32,40.01760775,cpdm,60.0,1.0,,task,0.5,0.05,low_vol_high_risk,1.0,high,13.0,p,0.7044,0.9717,1.844671614,97.0,59.0,0.0
151,2023-01-30_23h45.21.772,idm-v2,2022.2.4,Win32,40.01760775,cpdm,149.0,1.0,,task,-5.0,0.2,low_vol_high_risk,1.0,high,13.0,q,0.4542,1.2207,1.562714818,98.0,148.0,1.0
152,2023-01-30_23h45.21.772,idm-v2,2022.2.4,Win32,40.01760775,cpdm,124.0,1.0,,task,3.5,0.05,low_vol_high_risk,1.0,high,13.0,p,0.7047,0.9714,1.76734134,99.0,123.0,0.0
153,2023-01-30_23h45.21.772,idm-v2,2022.2.4,Win32,40.01760775,cpdm,65.0,1.0,,task,-2.5,0.2,low_vol_high_risk,1.0,high,13.0,q,0.454,1.221,2.153049224,100.0,64.0,0.0
154,2023-01-30_23h45.21.772,idm-v2,2022.2.4,Win32,40.01760775,cpdm,117.0,1.0,,task,3.0,0.2,low_vol_high_risk,1.0,high,13.0,p,0.4049,1.295,2.715904336,101.0,116.0,0.0
155,2023-01-30_23h45.21.772,idm-v2,2022.2.4,Win32,40.01760775,cpdm,38.0,1.0,,task,3.5,0.2,low_vol_high_risk,1.0,high,13.0,p,0.3744,1.3007,2.516942998,102.0,37.0,0.0
156,2023-01-30_23h45.21.772,idm-v2,2022.2.4,Win32,40.01760775,cpdm,6.0,1.0,,task,-2.0,0.05,low_vol_high_risk,1.0,high,13.0,q,0.6474,1.0521,2.491149459,103.0,5.0,0.0
157,2023-01-30_23h45.21.772,idm-v2,2022.2.4,Win32,40.01760775,cpdm,107.0,1.0,,task,2.0,0.2,low_vol_high_risk,1.0,high,13.0,p,0.3813,1.2939,2.996196845,104.0,106.0,0.0
158,2023-01-30_23h45.21.772,idm-v2,2022.2.4,Win32,40.01760775,cpdm,128.0,1.0,,task,3.5,0.05,low_vol_high_risk,1.0,high,13.0,p,0.4304,1.2447,1.494658326,105.0,127.0,0.0
159,2023-01-30_23h45.21.772,idm-v2,2022.2.4,Win32,40.01760775,cpdm,40.0,0.0,,task,-0.5,0.05,low_vol_high_risk,0.0,low,2.0,l,0.9097,0.7654,1.763531396,106.0,39.0,0.0
160,2023-01-30_23h45.21.772,idm-v2,2022.2.4,Win32,40.01760775,cpdm,51.0,1.0,,task,-1.0,0.2,low_vol_high_risk,0.0,low,8.0,a,0.9736,0.7021,1.800045415,107.0,50.0,0.0
161,2023-01-30_23h45.21.772,idm-v2,2022.2.4,Win32,40.01760775,cpdm,113.0,1.0,,task,1.5,0.05,low_vol_high_risk,1.0,high,13.0,p,0.6879,0.9894,1.221305798,108.0,112.0,0.0
162,2023-01-30_23h45.21.772,idm-v2,2022.2.4,Win32,40.01760775,cpdm,116.0,1.0,,task,4.0,0.2,low_vol_high_risk,1.0,high,13.0,p,0.5712,1.1115,2.834788246,109.0,115.0,0.0
163,2023-01-30_23h45.21.772,idm-v2,2022.2.4,Win32,40.01760775,cpdm,23.0,1.0,,task,0.5,0.2,low_vol_high_risk,1.0,high,13.0,p,0.8292,0.8521,1.371978913,110.0,22.0,0.0
164,2023-01-30_23h45.21.772,idm-v2,2022.2.4,Win32,40.01760775,cpdm,121.0,1.0,,task,2.5,0.05,low_vol_high_risk,1.0,high,13.0,p,0.6535,1.0219,1.083985958,111.0,120.0,0.0
165,2023-01-30_23h45.21.772,idm-v2,2022.2.4,Win32,40.01760775,cpdm,64.0,1.0,,task,5.0,0.05,low_vol_high_risk,1.0,high,13.0,p,0.5502,1.1385,1.995098631,112.0,63.0,0.0
166,2023-01-30_23h45.21.772,idm-v2,2022.2.4,Win32,40.01760775,cpdm,129.0,1.0,,task,0.5,0.05,low_vol_high_risk,1.0,high,13.0,p,0.5879,1.0022,2.131450071,113.0,128.0,0.0
167,2023-01-30_23h45.21.772,idm-v2,2022.2.4,Win32,40.01760775,cpdm,8.0,1.0,,task,-2.5,0.05,low_vol_high_risk,1.0,high,13.0,q,0.5042,1.1731,2.677869286,114.0,7.0,0.0
168,2023-01-30_23h45.21.772,idm-v2,2022.2.4,Win32,40.01760775,cpdm,189.0,1.0,,task,3.0,0.05,low_vol_high_risk,1.0,high,13.0,p,0.4046,1.2912,1.88082636,115.0,188.0,0.0
169,2023-01-30_23h45.21.772,idm-v2,2022.2.4,Win32,40.01760775,cpdm,46.0,1.0,,task,1.0,0.05,low_vol_high_risk,1.0,high,13.0,p,0.5834,1.0903,1.29788931,116.0,45.0,0.0
170,2023-01-30_23h45.21.772,idm-v2,2022.2.4,Win32,40.01760775,cpdm,184.0,1.0,,task,-1.5,0.05,low_vol_high_risk,1.0,high,13.0,q,0.6551,1.0203,1.995116133,117.0,183.0,0.0
171,2023-01-30_23h45.21.772,idm-v2,2022.2.4,Win32,40.01760775,cpdm,180.0,1.0,,task,3.5,0.2,low_vol_high_risk,1.0,high,13.0,p,0.3781,1.3091,2.926490049,118.0,179.0,0.0
172,2023-01-30_23h45.21.772,idm-v2,2022.2.4,Win32,40.01760775,cpdm,160.0,1.0,,task,3.0,0.2,low_vol_high_risk,1.0,high,13.0,p,0.4046,1.195,2.63141216,119.0,159.0,0.0
173,2023-01-30_23h45.21.772,idm-v2,2022.2.4,Win32,40.01760775,cpdm,25.0,1.0,,task,1.5,0.2,low_vol_high_risk,1.0,high,13.0,p,0.3273,1.3727,3.000121022,120.0,24.0,0.0
174,2023-01-30_23h45.21.772,idm-v2,2022.2.4,Win32,40.01760775,cpdm,56.0,1.0,,task,-1.0,0.2,low_vol_high_risk,0.0,low,8.0,a,0.8284,0.8716,0.986724872,121.0,55.0,0.0
175,2023-01-30_23h45.21.772,idm-v2,2022.2.4,Win32,40.01760775,cpdm,127.0,1.0,,task,4.0,0.05,low_vol_high_risk,1.0,high,13.0,p,0.6169,1.083,1.175885746,122.0,126.0,0.0
176,2023-01-30_23h45.21.772,idm-v2,2022.2.4,Win32,40.01760775,cpdm,164.0,1.0,,task,-1.0,0.05,low_vol_high_risk,1.0,high,13.0,q,0.8979,0.7767,1.738157163,123.0,163.0,0.0
177,2023-01-30_23h45.21.772,idm-v2,2022.2.4,Win32,40.01760775,cpdm,54.0,1.0,,task,-4.0,0.05,low_vol_high_risk,1.0,high,13.0,q,0.4544,1.208,2.970602176,124.0,53.0,0.0
178,2023-01-30_23h45.21.772,idm-v2,2022.2.4,Win32,40.01760775,cpdm,131.0,1.0,,task,-1.5,0.2,low_vol_high_risk,1.0,high,13.0,q,0.7234,0.9621,1.532542415,125.0,130.0,0.0
179,2023-01-30_23h45.21.772,idm-v2,2022.2.4,Win32,40.01760775,cpdm,84.0,1.0,,task,5.0,0.05,low_vol_high_risk,1.0,high,13.0,p,0.3793,1.3205,2.304567331,126.0,83.0,0.0
180,2023-01-30_23h45.21.772,idm-v2,2022.2.4,Win32,40.01760775,cpdm,92.0,0.0,,task,0.0,0.05,low_vol_high_risk,1.0,high,0.0,q,0.5535,1.1213,3.063014628,127.0,91.0,0.0
181,2023-01-30_23h45.21.772,idm-v2,2022.2.4,Win32,40.01760775,cpdm,137.0,1.0,,task,-3.0,0.2,low_vol_high_risk,1.0,high,13.0,q,0.4294,1.2454,2.608200212,128.0,136.0,0.0
182,2023-01-30_23h45.21.772,idm-v2,2022.2.4,Win32,40.01760775,cpdm,168.0,1.0,,task,3.5,0.05,low_vol_high_risk,1.0,high,13.0,p,0.4036,1.2715,1.953936724,129.0,167.0,0.0
183,2023-01-30_23h45.21.772,idm-v2,2022.2.4,Win32,40.01760775,cpdm,172.0,1.0,,task,2.0,0.05,low_vol_high_risk,1.0,high,13.0,p,0.4294,1.0942,1.216523213,130.0,171.0,0.0
184,2023-01-30_23h45.21.772,idm-v2,2022.2.4,Win32,40.01760775,cpdm,95.0,1.0,,task,2.5,0.05,low_vol_high_risk,1.0,high,13.0,p,0.4041,1.0471,1.976528119,131.0,94.0,0.0
185,2023-01-30_23h45.21.772,idm-v2,2022.2.4,Win32,40.01760775,cpdm,30.0,1.0,,task,-2.0,0.05,low_vol_high_risk,1.0,high,13.0,q,0.7292,0.9618,1.844248757,132.0,29.0,0.0
186,2023-01-30_23h45.21.772,idm-v2,2022.2.4,Win32,40.01760775,cpdm,39.0,1.0,,task,-4.0,0.05,low_vol_high_risk,1.0,high,13.0,q,0.3557,1.3442,2.361855991,133.0,38.0,0.0
187,2023-01-30_23h45.21.772,idm-v2,2022.2.4,Win32,40.01760775,cpdm,50.0,0.0,,task,1.0,0.2,low_vol_high_risk,0.0,low,2.0,a,1.1542,0.5458,2.007602618,134.0,49.0,0.0
188,2023-01-30_23h45.21.772,idm-v2,2022.2.4,Win32,40.01760775,cpdm,97.0,1.0,,task,1.0,0.2,low_vol_high_risk,0.0,low,8.0,l,0.7788,0.9201,1.787575754,135.0,96.0,0.0
189,2023-01-30_23h45.21.772,idm-v2,2022.2.4,Win32,40.01760775,cpdm,142.0,0.0,,task,0.0,0.2,low_vol_high_risk,0.0,low,2.0,l,0.931,0.7572,1.634691108,136.0,141.0,0.0
190,2023-01-30_23h45.21.772,idm-v2,2022.2.4,Win32,40.01760775,cpdm,174.0,1.0,,task,-2.0,0.2,low_vol_high_risk,1.0,high,13.0,q,0.6806,0.9951,1.969303484,137.0,173.0,0.0
191,2023-01-30_23h45.21.772,idm-v2,2022.2.4,Win32,40.01760775,cpdm,103.0,1.0,,task,-4.5,0.2,low_vol_high_risk,1.0,high,13.0,q,0.38,1.3191,1.9628504,138.0,102.0,1.0
192,2023-01-30_23h45.21.772,idm-v2,2022.2.4,Win32,40.01760775,cpdm,157.0,1.0,,task,3.0,0.2,low_vol_high_risk,1.0,high,13.0,p,0.4308,1.2678,2.646394558,139.0,156.0,0.0
193,2023-01-30_23h45.21.772,idm-v2,2022.2.4,Win32,40.01760775,cpdm,62.0,1.0,,task,3.0,0.05,low_vol_high_risk,1.0,high,13.0,p,0.3806,1.2952,2.747614363,140.0,61.0,0.0
194,2023-01-30_23h45.21.772,idm-v2,2022.2.4,Win32,40.01760775,cpdm,53.0,1.0,,task,2.0,0.2,low_vol_high_risk,1.0,high,13.0,p,0.4039,1.2713,2.392030387,141.0,52.0,0.0
195,2023-01-30_23h45.21.772,idm-v2,2022.2.4,Win32,40.01760775,cpdm,32.0,1.0,,task,-4.0,0.2,low_vol_high_risk,1.0,high,13.0,q,0.4046,1.2706,1.421030379,142.0,31.0,0.0
196,2023-01-30_23h45.21.772,idm-v2,2022.2.4,Win32,40.01760775,cpdm,147.0,1.0,,task,-4.0,0.2,low_vol_high_risk,1.0,high,13.0,q,0.3827,1.2946,1.502761559,143.0,146.0,0.0
197,2023-01-30_23h45.21.772,idm-v2,2022.2.4,Win32,40.01760775,cpdm,144.0,1.0,,task,-3.0,0.05,low_vol_high_risk,0.0,low,8.0,a,0.9239,0.752,1.694500032,144.0,143.0,0.0
198,2023-01-30_23h45.21.772,idm-v2,2022.2.4,Win32,40.01760775,cpdm,175.0,1.0,,task,3.5,0.2,low_vol_high_risk,1.0,high,13.0,p,0.4308,1.1424,3.08853687,145.0,174.0,0.0
199,2023-01-30_23h45.21.772,idm-v2,2022.2.4,Win32,40.01760775,cpdm,21.0,1.0,,task,-3.5,0.2,low_vol_high_risk,1.0,high,13.0,q,0.33,1.0955,2.808185594,146.0,20.0,0.0
200,2023-01-30_23h45.21.772,idm-v2,2022.2.4,Win32,40.01760775,cpdm,191.0,1.0,,task,2.0,0.05,low_vol_high_risk,1.0,high,13.0,p,0.4527,0.99,2.683553209,147.0,190.0,0.0
201,2023-01-30_23h45.21.772,idm-v2,2022.2.4,Win32,40.01760775,cpdm,44.0,1.0,,task,-1.0,0.05,low_vol_high_risk,1.0,high,13.0,q,0.6804,0.9954,2.66746898,148.0,43.0,0.0
202,2023-01-30_23h45.21.772,idm-v2,2022.2.4,Win32,40.01760775,cpdm,105.0,1.0,,task,-0.5,0.05,low_vol_high_risk,1.0,high,13.0,q,0.4826,1.005,1.331861769,149.0,104.0,0.0
203,2023-01-30_23h45.21.772,idm-v2,2022.2.4,Win32,40.01760775,cpdm,140.0,1.0,,task,-1.5,0.2,low_vol_high_risk,1.0,high,13.0,q,0.4048,1.1554,3.035969241,150.0,139.0,0.0
204,2023-01-30_23h45.21.772,idm-v2,2022.2.4,Win32,40.01760775,cpdm,110.0,1.0,,task,-1.5,0.05,low_vol_high_risk,0.0,low,8.0,a,0.8827,0.7934,2.177826564,151.0,109.0,0.0
205,2023-01-30_23h45.21.772,idm-v2,2022.2.4,Win32,40.01760775,cpdm,138.0,1.0,,task,5.0,0.2,low_vol_high_risk,1.0,high,13.0,p,0.4546,1.2199,1.917981116,152.0,137.0,1.0
206,2023-01-30_23h45.21.772,idm-v2,2022.2.4,Win32,40.01760775,cpdm,45.0,1.0,,task,1.5,0.05,low_vol_high_risk,1.0,high,13.0,p,0.3699,1.0197,2.573876016,153.0,44.0,0.0
207,2023-01-30_23h45.21.772,idm-v2,2022.2.4,Win32,40.01760775,cpdm,73.0,1.0,,task,-3.5,0.2,low_vol_high_risk,1.0,high,13.0,q,0.5288,1.1407,2.591599744,154.0,72.0,0.0
208,2023-01-30_23h45.21.772,idm-v2,2022.2.4,Win32,40.01760775,cpdm,100.0,1.0,,task,-0.5,0.2,low_vol_high_risk,0.0,low,8.0,a,0.7547,0.9203,1.520902754,155.0,99.0,0.0
209,2023-01-30_23h45.21.772,idm-v2,2022.2.4,Win32,40.01760775,cpdm,27.0,1.0,,task,-3.5,0.05,low_vol_high_risk,0.0,low,8.0,a,0.8808,0.8188,1.073753812,156.0,26.0,0.0
210,2023-01-30_23h45.21.772,idm-v2,2022.2.4,Win32,40.01760775,cpdm,108.0,1.0,,task,-2.0,0.2,low_vol_high_risk,1.0,high,13.0,q,0.7053,0.9707,2.554452307,157.0,107.0,0.0
211,2023-01-30_23h45.21.772,idm-v2,2022.2.4,Win32,40.01760775,cpdm,130.0,1.0,,task,-3.5,0.2,low_vol_high_risk,1.0,high,13.0,q,0.4292,1.27,1.919080014,158.0,129.0,0.0
212,2023-01-30_23h45.21.772,idm-v2,2022.2.4,Win32,40.01760775,cpdm,57.0,1.0,,task,5.0,0.2,low_vol_high_risk,1.0,high,13.0,p,0.3793,1.0493,1.071536924,159.0,56.0,1.0
213,2023-01-30_23h45.21.772,idm-v2,2022.2.4,Win32,40.01760775,cpdm,159.0,1.0,,task,-3.0,0.2,low_vol_high_risk,1.0,high,13.0,q,0.4035,1.27,2.43620385,160.0,158.0,0.0
214,2023-01-30_23h45.21.772,idm-v2,2022.2.4,Win32,40.01760775,cpdm,115.0,1.0,,task,-2.5,0.2,low_vol_high_risk,1.0,high,13.0,q,0.4545,1.221,2.514289817,161.0,114.0,0.0
215,2023-01-30_23h45.21.772,idm-v2,2022.2.4,Win32,40.01760775,cpdm,66.0,1.0,,task,3.0,0.2,low_vol_high_risk,1.0,high,13.0,p,0.3575,1.3418,2.728823075,162.0,65.0,0.0
216,2023-01-30_23h45.21.772,idm-v2,2022.2.4,Win32,40.01760775,cpdm,19.0,1.0,,task,-3.5,0.05,low_vol_high_risk,1.0,high,13.0,q,0.4296,1.2701,1.398431614,163.0,18.0,0.0
217,2023-01-30_23h45.21.772,idm-v2,2022.2.4,Win32,40.01760775,cpdm,59.0,1.0,,task,-5.0,0.05,low_vol_high_risk,1.0,high,13.0,q,0.5296,1.1456,2.892379805,164.0,58.0,0.0
218,2023-01-30_23h45.21.772,idm-v2,2022.2.4,Win32,40.01760775,cpdm,188.0,1.0,,task,4.0,0.05,low_vol_high_risk,1.0,high,13.0,p,0.4131,1.2868,2.229212232,165.0,187.0,0.0
219,2023-01-30_23h45.21.772,idm-v2,2022.2.4,Win32,40.01760775,cpdm,122.0,1.0,,task,0.0,0.05,low_vol_high_risk,0.0,low,8.0,a,0.822,0.8541,1.941171201,166.0,121.0,0.0
220,2023-01-30_23h45.21.772,idm-v2,2022.2.4,Win32,40.01760775,cpdm,197.0,0.0,,task,1.5,0.05,low_vol_high_risk,0.0,low,2.0,a,0.5933,1.1064,1.55281859,167.0,196.0,0.0
221,2023-01-30_23h45.21.772,idm-v2,2022.2.4,Win32,40.01760775,cpdm,158.0,1.0,,task,4.0,0.2,low_vol_high_risk,1.0,high,13.0,p,0.5798,1.1073,1.804854572,168.0,157.0,0.0
222,2023-01-30_23h45.21.772,idm-v2,2022.2.4,Win32,40.01760775,cpdm,20.0,1.0,,task,-4.0,0.05,low_vol_high_risk,1.0,high,13.0,q,0.5057,1.1816,1.470751879,169.0,19.0,0.0
223,2023-01-30_23h45.21.772,idm-v2,2022.2.4,Win32,40.01760775,cpdm,17.0,1.0,,task,1.5,0.2,low_vol_high_risk,1.0,high,13.0,p,1.6041,0.0833,1.71422424,170.0,16.0,0.0
224,2023-01-30_23h45.21.772,idm-v2,2022.2.4,Win32,40.01760775,cpdm,12.0,1.0,,task,2.5,0.2,low_vol_high_risk,1.0,high,13.0,p,0.4561,1.2194,2.124688597,171.0,11.0,0.0
225,2023-01-30_23h45.21.772,idm-v2,2022.2.4,Win32,40.01760775,cpdm,199.0,1.0,,task,5.0,0.05,low_vol_high_risk,1.0,high,13.0,p,0.4573,1.2414,2.995766177,172.0,198.0,0.0
226,2023-01-30_23h45.21.772,idm-v2,2022.2.4,Win32,40.01760775,cpdm,5.0,1.0,,task,2.5,0.05,low_vol_high_risk,1.0,high,13.0,p,0.8788,0.8196,1.490833799,173.0,4.0,0.0
227,2023-01-30_23h45.21.772,idm-v2,2022.2.4,Win32,40.01760775,cpdm,154.0,1.0,,task,4.0,0.05,low_vol_high_risk,1.0,high,13.0,p,0.4762,1.0647,1.862383363,174.0,153.0,0.0
228,2023-01-30_23h45.21.772,idm-v2,2022.2.4,Win32,40.01760775,cpdm,91.0,1.0,,task,4.0,0.2,low_vol_high_risk,1.0,high,13.0,p,0.3713,1.3048,2.628193013,175.0,90.0,0.0
229,2023-01-30_23h45.21.772,idm-v2,2022.2.4,Win32,40.01760775,cpdm,4.0,0.0,,task,1.0,0.05,low_vol_high_risk,0.0,low,2.0,a,1.3305,0.3689,1.637140052,176.0,3.0,0.0
230,2023-01-30_23h45.21.772,idm-v2,2022.2.4,Win32,40.01760775,cpdm,16.0,1.0,,task,-3.5,0.05,low_vol_high_risk,1.0,high,13.0,q,0.5547,1.1333,2.024333882,177.0,15.0,0.0
231,2023-01-30_23h45.21.772,idm-v2,2022.2.4,Win32,40.01760775,cpdm,68.0,1.0,,task,-0.5,0.2,low_vol_high_risk,1.0,high,13.0,q,0.8781,0.82,1.796617068,178.0,67.0,0.0
232,2023-01-30_23h45.21.772,idm-v2,2022.2.4,Win32,40.01760775,cpdm,48.0,1.0,,task,-2.0,0.05,low_vol_high_risk,1.0,high,13.0,q,0.5783,1.099,2.676997835,179.0,47.0,0.0
233,2023-01-30_23h45.21.772,idm-v2,2022.2.4,Win32,40.01760775,cpdm,90.0,1.0,,task,-2.5,0.2,low_vol_high_risk,1.0,high,13.0,q,0.431,1.2434,1.268405736,180.0,89.0,0.0
234,2023-01-30_23h45.21.772,idm-v2,2022.2.4,Win32,40.01760775,cpdm,179.0,1.0,,task,-3.0,0.2,low_vol_high_risk,1.0,high,13.0,q,0.4795,1.1963,2.626533595,181.0,178.0,0.0
235,2023-01-30_23h45.21.772,idm-v2,2022.2.4,Win32,40.01760775,cpdm,58.0,1.0,,task,-3.5,0.05,low_vol_high_risk,1.0,high,13.0,q,0.4294,1.2689,2.356763372,182.0,57.0,0.0
236,2023-01-30_23h45.21.772,idm-v2,2022.2.4,Win32,40.01760775,cpdm,83.0,1.0,,task,4.5,0.2,low_vol_high_risk,1.0,high,13.0,p,0.3802,1.2949,2.548986083,183.0,82.0,1.0
237,2023-01-30_23h45.21.772,idm-v2,2022.2.4,Win32,40.01760775,cpdm,34.0,1.0,,task,-4.5,0.05,low_vol_high_risk,1.0,high,13.0,q,0.3802,1.2949,3.156266712,184.0,33.0,0.0
238,2023-01-30_23h45.21.772,idm-v2,2022.2.4,Win32,40.01760775,cpdm,146.0,1.0,,task,4.5,0.05,low_vol_high_risk,1.0,high,13.0,p,0.4787,1.2212,3.028833305,185.0,145.0,0.0
239,2023-01-30_23h45.21.772,idm-v2,2022.2.4,Win32,40.01760775,cpdm,1.0,1.0,,task,1.0,0.2,low_vol_high_risk,1.0,high,13.0,p,0.48,1.1959,2.465723425,186.0,0.0,0.0
240,2023-01-30_23h45.21.772,idm-v2,2022.2.4,Win32,40.01760775,cpdm,111.0,1.0,,task,3.0,0.05,low_vol_high_risk,1.0,high,13.0,p,0.4296,1.2699,3.063382955,187.0,110.0,0.0
241,2023-01-30_23h45.21.772,idm-v2,2022.2.4,Win32,40.01760775,cpdm,183.0,1.0,,task,-5.0,0.2,low_vol_high_risk,1.0,high,13.0,q,0.3773,1.2978,2.622116237,188.0,182.0,1.0
242,2023-01-30_23h45.21.772,idm-v2,2022.2.4,Win32,40.01760775,cpdm,47.0,1.0,,task,1.0,0.2,low_vol_high_risk,1.0,high,13.0,p,0.8573,0.818,1.982464773,189.0,46.0,0.0
243,2023-01-30_23h45.21.772,idm-v2,2022.2.4,Win32,40.01760775,cpdm,194.0,1.0,,task,4.5,0.05,low_vol_high_risk,1.0,high,13.0,p,0.5037,1.1715,1.775450628,190.0,193.0,0.0
244,2023-01-30_23h45.21.772,idm-v2,2022.2.4,Win32,40.01760775,cpdm,173.0,1.0,,task,-3.5,0.05,low_vol_high_risk,1.0,high,13.0,q,0.5563,1.1238,2.138722917,191.0,172.0,0.0
245,2023-01-30_23h45.21.772,idm-v2,2022.2.4,Win32,40.01760775,cpdm,163.0,1.0,,task,-2.5,0.2,low_vol_high_risk,1.0,high,13.0,q,0.5537,1.1303,1.15430868,192.0,162.0,0.0
246,2023-01-30_23h45.21.772,idm-v2,2022.2.4,Win32,40.01760775,cpdm,139.0,1.0,,task,-2.0,0.05,low_vol_high_risk,1.0,high,13.0,q,0.7532,0.9232,1.507984635,193.0,138.0,0.0
247,2023-01-30_23h45.21.772,idm-v2,2022.2.4,Win32,40.01760775,cpdm,145.0,1.0,,task,-0.5,0.05,low_vol_high_risk,0.0,low,8.0,a,0.9648,0.7103,1.611287491,194.0,144.0,0.0
248,2023-01-30_23h45.21.772,idm-v2,2022.2.4,Win32,40.01760775,cpdm,187.0,0.0,,task,3.5,0.05,low_vol_high_risk,1.0,high,0.0,q,0.6548,1.0261,2.277359772,195.0,186.0,0.0
249,2023-01-30_23h45.21.772,idm-v2,2022.2.4,Win32,40.01760775,cpdm,15.0,1.0,,task,0.5,0.2,low_vol_high_risk,0.0,low,8.0,l,1.543,0.1375,1.266492114,196.0,14.0,0.0
250,2023-01-30_23h45.21.772,idm-v2,2022.2.4,Win32,40.01760775,cpdm,125.0,0.0,,task,0.0,0.2,low_vol_high_risk,0.0,low,2.0,l,0.7894,0.886,1.027697703,197.0,124.0,0.0
251,2023-01-30_23h45.21.772,idm-v2,2022.2.4,Win32,40.01760775,cpdm,61.0,1.0,,task,2.5,0.05,low_vol_high_risk,0.0,low,8.0,l,0.6417,1.0336,1.295433868,198.0,60.0,0.0
252,2023-01-30_23h45.21.772,idm-v2,2022.2.4,Win32,40.01760775,cpdm,3.0,1.0,,task,-5.0,0.05,low_vol_high_risk,1.0,high,13.0,q,0.4855,1.1945,3.140893138,199.0,2.0,0.0
254,2023-01-30_23h45.21.772,idm-v2,2022.2.4,Win32,40.01760775,cpdm,108.0,1.0,,task,-4.0,0.15,high_vol_low_risk,1.0,high,9.0,q,0.5137,1.1858,1.671327363,0.0,107.0,0.0
255,2023-01-30_23h45.21.772,idm-v2,2022.2.4,Win32,40.01760775,cpdm,32.0,1.0,,task,1.5,0.15,high_vol_low_risk,1.0,high,9.0,p,0.5544,0.9187,2.144931651,1.0,31.0,0.0
256,2023-01-30_23h45.21.772,idm-v2,2022.2.4,Win32,40.01760775,cpdm,125.0,1.0,,task,2.5,0.15,high_vol_low_risk,1.0,high,9.0,p,0.4034,1.2957,2.053882459,2.0,124.0,0.0
257,2023-01-30_23h45.21.772,idm-v2,2022.2.4,Win32,40.01760775,cpdm,68.0,1.0,,task,5.0,0.025,high_vol_low_risk,1.0,high,9.0,p,0.7298,0.9454,1.174663872,3.0,67.0,0.0
258,2023-01-30_23h45.21.772,idm-v2,2022.2.4,Win32,40.01760775,cpdm,54.0,1.0,,task,-3.0,0.05,high_vol_low_risk,1.0,high,9.0,q,0.5406,1.1347,2.863845365,4.0,53.0,0.0
259,2023-01-30_23h45.21.772,idm-v2,2022.2.4,Win32,40.01760775,cpdm,8.0,1.0,,task,3.0,0.25,high_vol_low_risk,1.0,high,9.0,p,0.4853,1.1906,2.200842582,5.0,7.0,0.0
260,2023-01-30_23h45.21.772,idm-v2,2022.2.4,Win32,40.01760775,cpdm,35.0,1.0,,task,2.0,0.025,high_vol_low_risk,1.0,high,9.0,p,0.4798,1.1956,2.316467724,6.0,34.0,0.0
261,2023-01-30_23h45.21.772,idm-v2,2022.2.4,Win32,40.01760775,cpdm,86.0,1.0,,task,2.5,0.25,high_vol_low_risk,1.0,high,9.0,p,0.3459,1.3294,1.717517067,7.0,85.0,0.0
262,2023-01-30_23h45.21.772,idm-v2,2022.2.4,Win32,40.01760775,cpdm,52.0,1.0,,task,-3.0,0.2,high_vol_low_risk,1.0,high,9.0,q,0.4545,1.2449,2.664344542,8.0,51.0,0.0
263,2023-01-30_23h45.21.772,idm-v2,2022.2.4,Win32,40.01760775,cpdm,3.0,1.0,,task,-0.5,0.25,high_vol_low_risk,0.0,low,8.0,a,0.6792,0.9957,1.680230758,9.0,2.0,0.0
264,2023-01-30_23h45.21.772,idm-v2,2022.2.4,Win32,40.01760775,cpdm,139.0,1.0,,task,-3.0,0.15,high_vol_low_risk,1.0,high,9.0,q,0.9994,0.6751,2.109805269,10.0,138.0,0.0
265,2023-01-30_23h45.21.772,idm-v2,2022.2.4,Win32,40.01760775,cpdm,47.0,1.0,,task,5.0,0.25,high_vol_low_risk,1.0,high,9.0,p,0.5787,1.0956,2.784993585,11.0,46.0,1.0
266,2023-01-30_23h45.21.772,idm-v2,2022.2.4,Win32,40.01760775,cpdm,71.0,1.0,,task,2.5,0.15,high_vol_low_risk,1.0,high,9.0,p,0.5838,1.0913,1.987694859,12.0,70.0,0.0
267,2023-01-30_23h45.21.772,idm-v2,2022.2.4,Win32,40.01760775,cpdm,120.0,0.0,,task,0.5,0.025,high_vol_low_risk,0.0,low,2.0,a,1.1539,0.5221,2.548780536,13.0,119.0,0.0
268,2023-01-30_23h45.21.772,idm-v2,2022.2.4,Win32,40.01760775,cpdm,1.0,1.0,,task,0.5,0.25,high_vol_low_risk,0.0,low,8.0,l,0.8287,0.8705,2.436201692,14.0,0.0,0.0
269,2023-01-30_23h45.21.772,idm-v2,2022.2.4,Win32,40.01760775,cpdm,105.0,1.0,,task,-1.5,0.025,high_vol_low_risk,0.0,low,8.0,a,1.1547,0.5205,1.729395018,15.0,104.0,0.0
270,2023-01-30_23h45.21.772,idm-v2,2022.2.4,Win32,40.01760775,cpdm,58.0,1.0,,task,1.0,0.025,high_vol_low_risk,0.0,low,8.0,l,0.8829,0.8045,2.357979421,16.0,57.0,0.0
271,2023-01-30_23h45.21.772,idm-v2,2022.2.4,Win32,40.01760775,cpdm,181.0,1.0,,task,-0.5,0.05,high_vol_low_risk,0.0,low,8.0,a,0.8312,0.8436,2.392521718,17.0,180.0,0.0
272,2023-01-30_23h45.21.772,idm-v2,2022.2.4,Win32,40.01760775,cpdm,184.0,1.0,,task,0.5,0.1,high_vol_low_risk,0.0,low,8.0,l,0.6888,0.9865,1.728141483,18.0,183.0,0.0
273,2023-01-30_23h45.21.772,idm-v2,2022.2.4,Win32,40.01760775,cpdm,50.0,1.0,,task,-1.5,0.15,high_vol_low_risk,1.0,high,9.0,q,0.7043,0.9716,1.789988204,19.0,49.0,0.0
274,2023-01-30_23h45.21.772,idm-v2,2022.2.4,Win32,40.01760775,cpdm,38.0,1.0,,task,0.0,0.15,high_vol_low_risk,0.0,low,8.0,l,0.7815,0.8941,2.617302272,20.0,37.0,0.0
275,2023-01-30_23h45.21.772,idm-v2,2022.2.4,Win32,40.01760775,cpdm,91.0,1.0,,task,-1.0,0.25,high_vol_low_risk,0.0,low,8.0,a,0.7294,0.9586,2.200513481,21.0,90.0,0.0
276,2023-01-30_23h45.21.772,idm-v2,2022.2.4,Win32,40.01760775,cpdm,175.0,1.0,,task,0.5,0.15,high_vol_low_risk,0.0,low,8.0,l,0.6341,1.0445,2.180020053,22.0,174.0,0.0
277,2023-01-30_23h45.21.772,idm-v2,2022.2.4,Win32,40.01760775,cpdm,113.0,1.0,,task,2.0,0.1,high_vol_low_risk,1.0,high,9.0,p,0.4329,1.255,2.345617963,23.0,112.0,0.0
278,2023-01-30_23h45.21.772,idm-v2,2022.2.4,Win32,40.01760775,cpdm,185.0,1.0,,task,-2.5,0.1,high_vol_low_risk,1.0,high,9.0,q,0.4484,1.2269,2.405407065,24.0,184.0,0.0
279,2023-01-30_23h45.21.772,idm-v2,2022.2.4,Win32,40.01760775,cpdm,111.0,1.0,,task,-4.0,0.025,high_vol_low_risk,0.0,low,8.0,a,0.6037,1.0207,1.818468876,25.0,110.0,0.0
280,2023-01-30_23h45.21.772,idm-v2,2022.2.4,Win32,40.01760775,cpdm,90.0,1.0,,task,1.0,0.25,high_vol_low_risk,0.0,low,8.0,l,0.8546,0.8211,2.444997191,26.0,89.0,0.0
281,2023-01-30_23h45.21.772,idm-v2,2022.2.4,Win32,40.01760775,cpdm,51.0,1.0,,task,1.0,0.025,high_vol_low_risk,0.0,low,8.0,l,1.005,0.67,1.957172682,27.0,50.0,0.0
282,2023-01-30_23h45.21.772,idm-v2,2022.2.4,Win32,40.01760775,cpdm,53.0,1.0,,task,-0.5,0.15,high_vol_low_risk,0.0,low,8.0,a,1.0502,0.6246,1.78130918,28.0,52.0,0.0
283,2023-01-30_23h45.21.772,idm-v2,2022.2.4,Win32,40.01760775,cpdm,116.0,1.0,,task,1.0,0.05,high_vol_low_risk,0.0,low,8.0,l,0.6083,1.0667,2.601700369,29.0,115.0,0.0
284,2023-01-30_23h45.21.772,idm-v2,2022.2.4,Win32,40.01760775,cpdm,151.0,1.0,,task,2.5,0.25,high_vol_low_risk,1.0,high,9.0,p,0.4547,1.2206,1.242380874,30.0,150.0,0.0
285,2023-01-30_23h45.21.772,idm-v2,2022.2.4,Win32,40.01760775,cpdm,9.0,1.0,,task,3.5,0.25,high_vol_low_risk,1.0,high,9.0,p,0.354,1.3212,3.263153781,31.0,8.0,0.0
286,2023-01-30_23h45.21.772,idm-v2,2022.2.4,Win32,40.01760775,cpdm,76.0,1.0,,task,0.5,0.1,high_vol_low_risk,1.0,high,9.0,p,0.4327,1.2672,2.520002862,32.0,75.0,0.0
287,2023-01-30_23h45.21.772,idm-v2,2022.2.4,Win32,40.01760775,cpdm,162.0,1.0,,task,2.5,0.2,high_vol_low_risk,1.0,high,9.0,p,0.4953,1.1872,1.417939862,33.0,161.0,0.0
288,2023-01-30_23h45.21.772,idm-v2,2022.2.4,Win32,40.01760775,cpdm,137.0,1.0,,task,-2.5,0.2,high_vol_low_risk,1.0,high,9.0,q,0.7989,0.8768,2.755261074,34.0,136.0,0.0
289,2023-01-30_23h45.21.772,idm-v2,2022.2.4,Win32,40.01760775,cpdm,31.0,1.0,,task,-1.5,0.05,high_vol_low_risk,0.0,low,8.0,a,0.6804,1.0015,2.112121276,35.0,30.0,0.0
290,2023-01-30_23h45.21.772,idm-v2,2022.2.4,Win32,40.01760775,cpdm,59.0,1.0,,task,-2.0,0.25,high_vol_low_risk,0.0,low,8.0,a,0.5532,1.1046,2.473032137,36.0,58.0,0.0
291,2023-01-30_23h45.21.772,idm-v2,2022.2.4,Win32,40.01760775,cpdm,124.0,1.0,,task,-1.5,0.05,high_vol_low_risk,0.0,low,8.0,a,0.4191,1.2571,1.342699435,37.0,123.0,0.0
292,2023-01-30_23h45.21.772,idm-v2,2022.2.4,Win32,40.01760775,cpdm,150.0,1.0,,task,-2.0,0.1,high_vol_low_risk,0.0,low,8.0,a,0.5335,1.1418,2.067062269,38.0,149.0,0.0
293,2023-01-30_23h45.21.772,idm-v2,2022.2.4,Win32,40.01760775,cpdm,75.0,1.0,,task,1.5,0.1,high_vol_low_risk,1.0,high,9.0,p,0.8888,0.7863,1.16813285,39.0,74.0,0.0
294,2023-01-30_23h45.21.772,idm-v2,2022.2.4,Win32,40.01760775,cpdm,158.0,0.0,,task,-3.0,0.025,high_vol_low_risk,0.0,low,2.0,l,1.1349,0.5404,1.86413593,40.0,157.0,0.0
295,2023-01-30_23h45.21.772,idm-v2,2022.2.4,Win32,40.01760775,cpdm,14.0,1.0,,task,-1.5,0.25,high_vol_low_risk,1.0,high,9.0,q,0.5797,1.0964,2.445868836,41.0,13.0,0.0
296,2023-01-30_23h45.21.772,idm-v2,2022.2.4,Win32,40.01760775,cpdm,72.0,1.0,,task,-3.0,0.25,high_vol_low_risk,1.0,high,9.0,q,0.4052,1.2679,2.468637818,42.0,71.0,0.0
297,2023-01-30_23h45.21.772,idm-v2,2022.2.4,Win32,40.01760775,cpdm,168.0,1.0,,task,-3.5,0.05,high_vol_low_risk,1.0,high,9.0,q,0.4288,1.2589,2.232973466,43.0,167.0,0.0
298,2023-01-30_23h45.21.772,idm-v2,2022.2.4,Win32,40.01760775,cpdm,64.0,1.0,,task,0.5,0.15,high_vol_low_risk,0.0,low,8.0,l,0.6275,0.7774,1.22412902,44.0,63.0,0.0
299,2023-01-30_23h45.21.772,idm-v2,2022.2.4,Win32,40.01760775,cpdm,153.0,1.0,,task,3.0,0.15,high_vol_low_risk,1.0,high,9.0,p,0.7786,0.9032,1.904915529,45.0,152.0,0.0
300,2023-01-30_23h45.21.772,idm-v2,2022.2.4,Win32,40.01760775,cpdm,43.0,1.0,,task,-5.0,0.05,high_vol_low_risk,1.0,high,9.0,q,0.8051,0.8709,2.029825287,46.0,42.0,0.0
301,2023-01-30_23h45.21.772,idm-v2,2022.2.4,Win32,40.01760775,cpdm,199.0,0.0,,task,1.5,0.025,high_vol_low_risk,0.0,low,2.0,a,0.7066,0.9703,1.788505362,47.0,198.0,0.0
302,2023-01-30_23h45.21.772,idm-v2,2022.2.4,Win32,40.01760775,cpdm,60.0,1.0,,task,-2.0,0.2,high_vol_low_risk,0.0,low,8.0,a,0.5812,1.1076,1.734831613,48.0,59.0,0.0
303,2023-01-30_23h45.21.772,idm-v2,2022.2.4,Win32,40.01760775,cpdm,2.0,1.0,,task,1.5,0.25,high_vol_low_risk,1.0,high,9.0,p,0.501,1.1745,1.329327692,49.0,1.0,0.0
304,2023-01-30_23h45.21.772,idm-v2,2022.2.4,Win32,40.01760775,cpdm,148.0,1.0,,task,2.0,0.1,high_vol_low_risk,1.0,high,9.0,p,0.479,1.0687,1.505131448,50.0,147.0,0.0
305,2023-01-30_23h45.21.772,idm-v2,2022.2.4,Win32,40.01760775,cpdm,94.0,1.0,,task,-5.0,0.025,high_vol_low_risk,1.0,high,9.0,q,0.8298,0.8457,1.74972414,51.0,93.0,0.0
306,2023-01-30_23h45.21.772,idm-v2,2022.2.4,Win32,40.01760775,cpdm,130.0,1.0,,task,-1.0,0.15,high_vol_low_risk,0.0,low,8.0,a,0.829,0.8462,2.416753875,52.0,129.0,0.0
307,2023-01-30_23h45.21.772,idm-v2,2022.2.4,Win32,40.01760775,cpdm,28.0,1.0,,task,5.0,0.2,high_vol_low_risk,1.0,high,9.0,p,0.4555,1.2196,1.314141862,53.0,27.0,1.0
308,2023-01-30_23h45.21.772,idm-v2,2022.2.4,Win32,40.01760775,cpdm,42.0,1.0,,task,1.0,0.25,high_vol_low_risk,0.0,low,8.0,l,0.8032,0.8721,2.676950429,54.0,41.0,0.0
309,2023-01-30_23h45.21.772,idm-v2,2022.2.4,Win32,40.01760775,cpdm,106.0,1.0,,task,3.0,0.1,high_vol_low_risk,1.0,high,9.0,p,0.5097,1.1659,1.749273993,55.0,105.0,0.0
310,2023-01-30_23h45.21.772,idm-v2,2022.2.4,Win32,40.01760775,cpdm,82.0,1.0,,task,5.0,0.15,high_vol_low_risk,1.0,high,9.0,p,0.3513,1.3477,2.217139422,56.0,81.0,0.0
311,2023-01-30_23h45.21.772,idm-v2,2022.2.4,Win32,40.01760775,cpdm,191.0,1.0,,task,3.0,0.1,high_vol_low_risk,1.0,high,9.0,p,0.7795,0.8964,2.290443707,57.0,190.0,0.0
312,2023-01-30_23h45.21.772,idm-v2,2022.2.4,Win32,40.01760775,cpdm,142.0,1.0,,task,2.0,0.25,high_vol_low_risk,1.0,high,9.0,p,0.3789,1.2962,1.873046923,58.0,141.0,0.0
313,2023-01-30_23h45.21.772,idm-v2,2022.2.4,Win32,40.01760775,cpdm,89.0,1.0,,task,-5.0,0.2,high_vol_low_risk,1.0,high,9.0,q,0.4046,1.0685,2.050158936,59.0,88.0,1.0
314,2023-01-30_23h45.21.772,idm-v2,2022.2.4,Win32,40.01760775,cpdm,67.0,1.0,,task,2.0,0.25,high_vol_low_risk,0.0,low,8.0,l,0.8752,0.8112,1.632857442,60.0,66.0,0.0
315,2023-01-30_23h45.21.772,idm-v2,2022.2.4,Win32,40.01760775,cpdm,12.0,1.0,,task,2.5,0.05,high_vol_low_risk,0.0,low,8.0,l,1.0392,0.6356,2.184226919,61.0,11.0,0.0
316,2023-01-30_23h45.21.772,idm-v2,2022.2.4,Win32,40.01760775,cpdm,16.0,0.0,,task,0.0,0.025,high_vol_low_risk,0.0,low,2.0,l,0.8309,0.8454,2.797769766,62.0,15.0,0.0
317,2023-01-30_23h45.21.772,idm-v2,2022.2.4,Win32,40.01760775,cpdm,169.0,1.0,,task,-1.5,0.2,high_vol_low_risk,0.0,low,8.0,a,1.0539,0.4461,0.738718082,63.0,168.0,0.0
318,2023-01-30_23h45.21.772,idm-v2,2022.2.4,Win32,40.01760775,cpdm,126.0,1.0,,task,-2.0,0.05,high_vol_low_risk,0.0,low,8.0,a,0.9361,0.7386,1.048801226,64.0,125.0,0.0
319,2023-01-30_23h45.21.772,idm-v2,2022.2.4,Win32,40.01760775,cpdm,79.0,1.0,,task,2.0,0.15,high_vol_low_risk,0.0,low,8.0,l,0.6538,1.0213,2.677273608,65.0,78.0,0.0
320,2023-01-30_23h45.21.772,idm-v2,2022.2.4,Win32,40.01760775,cpdm,41.0,1.0,,task,3.0,0.2,high_vol_low_risk,1.0,high,9.0,p,0.4297,1.2703,2.338805684,66.0,40.0,0.0
321,2023-01-30_23h45.21.772,idm-v2,2022.2.4,Win32,40.01760775,cpdm,7.0,1.0,,task,-2.5,0.1,high_vol_low_risk,1.0,high,9.0,q,0.5297,1.1454,1.282414153,67.0,6.0,0.0
322,2023-01-30_23h45.21.772,idm-v2,2022.2.4,Win32,40.01760775,cpdm,160.0,1.0,,task,1.0,0.05,high_vol_low_risk,0.0,low,8.0,l,0.9213,0.764,1.76136253,68.0,159.0,0.0
323,2023-01-30_23h45.21.772,idm-v2,2022.2.4,Win32,40.01760775,cpdm,174.0,1.0,,task,3.0,0.15,high_vol_low_risk,1.0,high,9.0,p,0.4543,1.2212,2.677585511,69.0,173.0,0.0
324,2023-01-30_23h45.21.772,idm-v2,2022.2.4,Win32,40.01760775,cpdm,147.0,1.0,,task,-4.5,0.2,high_vol_low_risk,1.0,high,9.0,q,0.6046,1.0831,2.152493961,70.0,146.0,1.0
325,2023-01-30_23h45.21.772,idm-v2,2022.2.4,Win32,40.01760775,cpdm,84.0,1.0,,task,-3.0,0.1,high_vol_low_risk,1.0,high,9.0,q,0.3354,1.3399,2.595698177,71.0,83.0,0.0
326,2023-01-30_23h45.21.772,idm-v2,2022.2.4,Win32,40.01760775,cpdm,27.0,1.0,,task,-2.0,0.15,high_vol_low_risk,0.0,low,8.0,a,0.9014,0.7854,1.063759101,72.0,26.0,0.0
327,2023-01-30_23h45.21.772,idm-v2,2022.2.4,Win32,40.01760775,cpdm,44.0,1.0,,task,0.5,0.05,high_vol_low_risk,0.0,low,8.0,l,1.201,0.4809,1.561657311,73.0,43.0,0.0
328,2023-01-30_23h45.21.772,idm-v2,2022.2.4,Win32,40.01760775,cpdm,166.0,1.0,,task,-0.5,0.2,high_vol_low_risk,0.0,low,8.0,a,0.7732,0.9029,1.364755763,74.0,165.0,0.0
329,2023-01-30_23h45.21.772,idm-v2,2022.2.4,Win32,40.01760775,cpdm,13.0,1.0,,task,0.5,0.2,high_vol_low_risk,1.0,high,9.0,p,0.5289,0.8633,2.070927859,75.0,12.0,0.0
330,2023-01-30_23h45.21.772,idm-v2,2022.2.4,Win32,40.01760775,cpdm,78.0,1.0,,task,1.0,0.15,high_vol_low_risk,0.0,low,8.0,l,0.5337,1.1416,2.520820526,76.0,77.0,0.0
331,2023-01-30_23h45.21.772,idm-v2,2022.2.4,Win32,40.01760775,cpdm,46.0,1.0,,task,-2.5,0.05,high_vol_low_risk,0.0,low,8.0,a,0.9425,0.4482,2.137364361,77.0,45.0,0.0
332,2023-01-30_23h45.21.772,idm-v2,2022.2.4,Win32,40.01760775,cpdm,21.0,1.0,,task,-1.0,0.25,high_vol_low_risk,0.0,low,8.0,a,0.6858,1.0142,2.216477893,78.0,20.0,0.0
333,2023-01-30_23h45.21.772,idm-v2,2022.2.4,Win32,40.01760775,cpdm,101.0,1.0,,task,-1.0,0.1,high_vol_low_risk,0.0,low,8.0,a,1.0791,0.5969,1.435121704,79.0,100.0,0.0
334,2023-01-30_23h45.21.772,idm-v2,2022.2.4,Win32,40.01760775,cpdm,123.0,1.0,,task,-4.5,0.25,high_vol_low_risk,1.0,high,9.0,q,0.5545,1.1206,2.255926251,80.0,122.0,1.0
335,2023-01-30_23h45.21.772,idm-v2,2022.2.4,Win32,40.01760775,cpdm,187.0,1.0,,task,-2.5,0.25,high_vol_low_risk,1.0,high,9.0,q,0.5541,1.1226,1.660782609,81.0,186.0,0.0
336,2023-01-30_23h45.21.772,idm-v2,2022.2.4,Win32,40.01760775,cpdm,45.0,1.0,,task,1.0,0.1,high_vol_low_risk,0.0,low,8.0,l,1.1294,0.5599,1.100551868,82.0,44.0,0.0
337,2023-01-30_23h45.21.772,idm-v2,2022.2.4,Win32,40.01760775,cpdm,80.0,1.0,,task,0.5,0.025,high_vol_low_risk,0.0,low,8.0,l,0.9549,0.6742,2.441650766,83.0,79.0,0.0
338,2023-01-30_23h45.21.772,idm-v2,2022.2.4,Win32,40.01760775,cpdm,4.0,1.0,,task,-2.5,0.15,high_vol_low_risk,1.0,high,9.0,q,0.43,1.2697,3.206186064,84.0,3.0,0.0
339,2023-01-30_23h45.21.772,idm-v2,2022.2.4,Win32,40.01760775,cpdm,98.0,1.0,,task,4.0,0.025,high_vol_low_risk,0.0,low,8.0,l,0.5783,1.0968,2.728365649,85.0,97.0,0.0
340,2023-01-30_23h45.21.772,idm-v2,2022.2.4,Win32,40.01760775,cpdm,92.0,1.0,,task,3.5,0.15,high_vol_low_risk,1.0,high,9.0,p,0.3536,1.3215,2.969174635,86.0,91.0,0.0
341,2023-01-30_23h45.21.772,idm-v2,2022.2.4,Win32,40.01760775,cpdm,159.0,1.0,,task,4.5,0.025,high_vol_low_risk,0.0,low,8.0,l,0.6545,1.0205,1.265026655,87.0,158.0,0.0
342,2023-01-30_23h45.21.772,idm-v2,2022.2.4,Win32,40.01760775,cpdm,146.0,1.0,,task,-3.0,0.1,high_vol_low_risk,1.0,high,9.0,q,0.6047,1.0953,1.138213978,88.0,145.0,0.0
343,2023-01-30_23h45.21.772,idm-v2,2022.2.4,Win32,40.01760775,cpdm,104.0,1.0,,task,-5.0,0.15,high_vol_low_risk,1.0,high,9.0,q,0.4314,1.2443,3.000493892,89.0,103.0,0.0
344,2023-01-30_23h45.21.772,idm-v2,2022.2.4,Win32,40.01760775,cpdm,87.0,1.0,,task,2.0,0.2,high_vol_low_risk,1.0,high,9.0,p,0.431,1.2441,3.177954111,90.0,86.0,0.0
345,2023-01-30_23h45.21.772,idm-v2,2022.2.4,Win32,40.01760775,cpdm,10.0,1.0,,task,4.0,0.1,high_vol_low_risk,1.0,high,9.0,p,0.5669,1.1091,2.832204553,91.0,9.0,0.0
346,2023-01-30_23h45.21.772,idm-v2,2022.2.4,Win32,40.01760775,cpdm,102.0,1.0,,task,-3.0,0.2,high_vol_low_risk,1.0,high,9.0,q,0.4799,1.1962,1.788726797,92.0,101.0,0.0
347,2023-01-30_23h45.21.772,idm-v2,2022.2.4,Win32,40.01760775,cpdm,107.0,1.0,,task,-2.0,0.25,high_vol_low_risk,1.0,high,9.0,q,0.5572,1.131,1.383636775,93.0,106.0,0.0
348,2023-01-30_23h45.21.772,idm-v2,2022.2.4,Win32,40.01760775,cpdm,194.0,1.0,,task,-2.5,0.2,high_vol_low_risk,1.0,high,9.0,q,0.3511,1.3242,1.673177143,94.0,193.0,0.0
349,2023-01-30_23h45.21.772,idm-v2,2022.2.4,Win32,40.01760775,cpdm,179.0,1.0,,task,-4.5,0.025,high_vol_low_risk,0.0,low,8.0,a,0.7787,0.8951,1.085767208,95.0,178.0,0.0
350,2023-01-30_23h45.21.772,idm-v2,2022.2.4,Win32,40.01760775,cpdm,178.0,1.0,,task,-4.0,0.25,high_vol_low_risk,1.0,high,9.0,q,0.3533,1.3466,1.65958552,96.0,177.0,0.0
351,2023-01-30_23h45.21.772,idm-v2,2022.2.4,Win32,40.01760775,cpdm,40.0,1.0,,task,-0.5,0.15,high_vol_low_risk,0.0,low,8.0,a,0.5759,1.0994,2.977591122,97.0,39.0,0.0
352,2023-01-30_23h45.21.772,idm-v2,2022.2.4,Win32,40.01760775,cpdm,141.0,1.0,,task,3.0,0.05,high_vol_low_risk,0.0,low,8.0,l,0.6298,1.0574,3.08232388,98.0,140.0,0.0
353,2023-01-30_23h45.21.772,idm-v2,2022.2.4,Win32,40.01760775,cpdm,143.0,1.0,,task,3.5,0.025,high_vol_low_risk,0.0,low,8.0,l,0.5547,1.0906,1.416350105,99.0,142.0,0.0
354,2023-01-30_23h45.21.772,idm-v2,2022.2.4,Win32,40.01760775,cpdm,83.0,1.0,,task,-3.5,0.15,high_vol_low_risk,1.0,high,9.0,q,0.5543,1.1335,2.450818553,100.0,82.0,0.0
355,2023-01-30_23h45.21.772,idm-v2,2022.2.4,Win32,40.01760775,cpdm,131.0,1.0,,task,4.0,0.2,high_vol_low_risk,1.0,high,9.0,p,0.326,1.3495,2.714291135,101.0,130.0,0.0
356,2023-01-30_23h45.21.772,idm-v2,2022.2.4,Win32,40.01760775,cpdm,49.0,1.0,,task,-1.0,0.2,high_vol_low_risk,0.0,low,8.0,a,0.6321,1.0425,2.851462522,102.0,48.0,0.0
357,2023-01-30_23h45.21.772,idm-v2,2022.2.4,Win32,40.01760775,cpdm,33.0,1.0,,task,-1.5,0.25,high_vol_low_risk,0.0,low,8.0,a,1.3535,0.3465,1.916637316,103.0,32.0,0.0
358,2023-01-30_23h45.21.772,idm-v2,2022.2.4,Win32,40.01760775,cpdm,55.0,1.0,,task,1.0,0.2,high_vol_low_risk,0.0,low,8.0,l,0.9043,0.7952,1.165937954,104.0,54.0,0.0
359,2023-01-30_23h45.21.772,idm-v2,2022.2.4,Win32,40.01760775,cpdm,144.0,1.0,,task,-3.0,0.25,high_vol_low_risk,1.0,high,9.0,q,0.8069,0.8688,1.381139895,105.0,143.0,0.0
360,2023-01-30_23h45.21.772,idm-v2,2022.2.4,Win32,40.01760775,cpdm,164.0,1.0,,task,4.0,0.05,high_vol_low_risk,1.0,high,9.0,p,1.3553,0.3201,1.789204487,106.0,163.0,0.0
361,2023-01-30_23h45.21.772,idm-v2,2022.2.4,Win32,40.01760775,cpdm,118.0,1.0,,task,1.0,0.2,high_vol_low_risk,0.0,low,8.0,l,0.4795,1.1964,1.297409386,107.0,117.0,0.0
362,2023-01-30_23h45.21.772,idm-v2,2022.2.4,Win32,40.01760775,cpdm,74.0,1.0,,task,2.0,0.2,high_vol_low_risk,1.0,high,9.0,p,0.3792,1.2963,2.67464598,108.0,73.0,0.0
363,2023-01-30_23h45.21.772,idm-v2,2022.2.4,Win32,40.01760775,cpdm,117.0,1.0,,task,5.0,0.1,high_vol_low_risk,1.0,high,9.0,p,0.4182,1.258,1.966214396,109.0,116.0,0.0
364,2023-01-30_23h45.21.772,idm-v2,2022.2.4,Win32,40.01760775,cpdm,136.0,1.0,,task,1.5,0.1,high_vol_low_risk,0.0,low,8.0,l,0.7558,0.939,2.825377819,110.0,135.0,0.0
365,2023-01-30_23h45.21.772,idm-v2,2022.2.4,Win32,40.01760775,cpdm,63.0,1.0,,task,2.0,0.05,high_vol_low_risk,0.0,low,8.0,l,0.8533,0.8218,1.867468712,111.0,62.0,0.0
366,2023-01-30_23h45.21.772,idm-v2,2022.2.4,Win32,40.01760775,cpdm,17.0,1.0,,task,-0.5,0.2,high_vol_low_risk,0.0,low,8.0,a,0.7805,0.8948,1.579056695,112.0,16.0,0.0
367,2023-01-30_23h45.21.772,idm-v2,2022.2.4,Win32,40.01760775,cpdm,81.0,1.0,,task,3.0,0.025,high_vol_low_risk,0.0,low,8.0,l,0.8717,0.8054,2.188583197,113.0,80.0,0.0
368,2023-01-30_23h45.21.772,idm-v2,2022.2.4,Win32,40.01760775,cpdm,154.0,1.0,,task,5.0,0.05,high_vol_low_risk,0.0,low,8.0,l,0.4799,1.1953,3.077197217,114.0,153.0,0.0
369,2023-01-30_23h45.21.772,idm-v2,2022.2.4,Win32,40.01760775,cpdm,62.0,1.0,,task,3.0,0.2,high_vol_low_risk,1.0,high,9.0,p,0.6486,1.0269,1.37756562,115.0,61.0,0.0
370,2023-01-30_23h45.21.772,idm-v2,2022.2.4,Win32,40.01760775,cpdm,88.0,0.0,,task,-2.5,0.025,high_vol_low_risk,0.0,low,2.0,l,1.1302,0.4641,2.482446211,116.0,87.0,0.0
371,2023-01-30_23h45.21.772,idm-v2,2022.2.4,Win32,40.01760775,cpdm,171.0,0.0,,task,-0.5,0.05,high_vol_low_risk,0.0,low,2.0,l,0.5045,1.1711,1.920179512,117.0,170.0,0.0
372,2023-01-30_23h45.21.772,idm-v2,2022.2.4,Win32,40.01760775,cpdm,48.0,1.0,,task,-1.0,0.05,high_vol_low_risk,0.0,low,8.0,a,0.7815,0.9185,1.189007881,118.0,47.0,0.0
373,2023-01-30_23h45.21.772,idm-v2,2022.2.4,Win32,40.01760775,cpdm,173.0,0.0,,task,-1.0,0.025,high_vol_low_risk,0.0,low,2.0,l,0.9509,0.7248,2.03770676,119.0,172.0,0.0
374,2023-01-30_23h45.21.772,idm-v2,2022.2.4,Win32,40.01760775,cpdm,15.0,1.0,,task,-5.0,0.1,high_vol_low_risk,1.0,high,9.0,q,0.5295,1.1457,2.663132148,120.0,14.0,0.0
375,2023-01-30_23h45.21.772,idm-v2,2022.2.4,Win32,40.01760775,cpdm,99.0,1.0,,task,-3.0,0.05,high_vol_low_risk,0.0,low,8.0,a,0.8055,0.8697,2.819097104,121.0,98.0,0.0
376,2023-01-30_23h45.21.772,idm-v2,2022.2.4,Win32,40.01760775,cpdm,121.0,1.0,,task,-4.5,0.1,high_vol_low_risk,1.0,high,9.0,q,0.4798,1.1005,1.317868649,122.0,120.0,0.0
377,2023-01-30_23h45.21.772,idm-v2,2022.2.4,Win32,40.01760775,cpdm,172.0,1.0,,task,4.5,0.05,high_vol_low_risk,0.0,low,8.0,l,0.8804,0.7948,1.319832907,123.0,171.0,0.0
378,2023-01-30_23h45.21.772,idm-v2,2022.2.4,Win32,40.01760775,cpdm,165.0,1.0,,task,-4.5,0.05,high_vol_low_risk,1.0,high,9.0,q,0.8801,0.7947,1.109427355,124.0,164.0,0.0
379,2023-01-30_23h45.21.772,idm-v2,2022.2.4,Win32,40.01760775,cpdm,95.0,1.0,,task,-2.0,0.15,high_vol_low_risk,1.0,high,9.0,q,0.8053,0.8697,1.782333197,125.0,94.0,0.0
380,2023-01-30_23h45.21.772,idm-v2,2022.2.4,Win32,40.01760775,cpdm,6.0,1.0,,task,-3.5,0.025,high_vol_low_risk,0.0,low,8.0,a,0.7802,0.895,1.572502669,126.0,5.0,0.0
381,2023-01-30_23h45.21.772,idm-v2,2022.2.4,Win32,40.01760775,cpdm,61.0,1.0,,task,5.0,0.05,high_vol_low_risk,1.0,high,9.0,p,0.6564,1.0207,2.286513117,127.0,60.0,0.0
382,2023-01-30_23h45.21.772,idm-v2,2022.2.4,Win32,40.01760775,cpdm,140.0,1.0,,task,0.5,0.05,high_vol_low_risk,0.0,low,8.0,l,0.5233,1.1668,2.139341881,128.0,139.0,0.0
383,2023-01-30_23h45.21.772,idm-v2,2022.2.4,Win32,40.01760775,cpdm,193.0,1.0,,task,-4.0,0.05,high_vol_low_risk,1.0,high,9.0,q,0.604,1.0712,2.01327569,129.0,192.0,0.0
384,2023-01-30_23h45.21.772,idm-v2,2022.2.4,Win32,40.01760775,cpdm,119.0,0.0,,task,0.0,0.2,high_vol_low_risk,0.0,low,2.0,l,1.0014,0.6864,1.51654356,130.0,118.0,0.0
385,2023-01-30_23h45.21.772,idm-v2,2022.2.4,Win32,40.01760775,cpdm,197.0,1.0,,task,2.5,0.025,high_vol_low_risk,0.0,low,8.0,l,0.4791,1.1964,2.886441616,131.0,196.0,0.0
386,2023-01-30_23h45.21.772,idm-v2,2022.2.4,Win32,40.01760775,cpdm,73.0,0.0,,task,-2.5,0.025,high_vol_low_risk,0.0,low,2.0,l,0.7539,0.9213,1.924865342,132.0,72.0,0.0
387,2023-01-30_23h45.21.772,idm-v2,2022.2.4,Win32,40.01760775,cpdm,180.0,1.0,,task,-4.0,0.1,high_vol_low_risk,1.0,high,9.0,q,0.505,1.1705,1.456502636,133.0,179.0,0.0
388,2023-01-30_23h45.21.772,idm-v2,2022.2.4,Win32,40.01760775,cpdm,97.0,1.0,,task,-1.5,0.1,high_vol_low_risk,0.0,low,8.0,a,0.5993,1.0814,2.637701192,134.0,96.0,0.0
389,2023-01-30_23h45.21.772,idm-v2,2022.2.4,Win32,40.01760775,cpdm,188.0,1.0,,task,-2.0,0.05,high_vol_low_risk,0.0,low,8.0,a,0.8299,0.847,1.608637659,135.0,187.0,0.0
390,2023-01-30_23h45.21.772,idm-v2,2022.2.4,Win32,40.01760775,cpdm,176.0,1.0,,task,4.5,0.15,high_vol_low_risk,1.0,high,9.0,p,0.4799,1.1954,2.139640784,136.0,175.0,0.0
391,2023-01-30_23h45.21.772,idm-v2,2022.2.4,Win32,40.01760775,cpdm,133.0,0.0,,task,0.0,0.1,high_vol_low_risk,0.0,low,2.0,a,0.7804,0.9185,2.824990709,137.0,132.0,0.0
392,2023-01-30_23h45.21.772,idm-v2,2022.2.4,Win32,40.01760775,cpdm,93.0,1.0,,task,1.0,0.15,high_vol_low_risk,1.0,high,9.0,p,0.7546,0.9206,1.188082417,138.0,92.0,0.0
393,2023-01-30_23h45.21.772,idm-v2,2022.2.4,Win32,40.01760775,cpdm,195.0,0.0,,task,-0.5,0.025,high_vol_low_risk,0.0,low,2.0,l,0.7314,0.9563,1.49884631,139.0,194.0,0.0
394,2023-01-30_23h45.21.772,idm-v2,2022.2.4,Win32,40.01760775,cpdm,23.0,1.0,,task,-4.0,0.2,high_vol_low_risk,1.0,high,9.0,q,0.4309,1.2444,1.644328602,140.0,22.0,0.0
395,2023-01-30_23h45.21.772,idm-v2,2022.2.4,Win32,40.01760775,cpdm,69.0,1.0,,task,-2.0,0.025,high_vol_low_risk,0.0,low,8.0,a,0.6789,0.9963,1.274034413,141.0,68.0,0.0
396,2023-01-30_23h45.21.772,idm-v2,2022.2.4,Win32,40.01760775,cpdm,145.0,1.0,,task,-2.5,0.05,high_vol_low_risk,0.0,low,8.0,a,0.5547,1.1208,2.635347783,142.0,144.0,0.0
397,2023-01-30_23h45.21.772,idm-v2,2022.2.4,Win32,40.01760775,cpdm,22.0,1.0,,task,-3.5,0.2,high_vol_low_risk,1.0,high,9.0,q,0.4593,1.2176,1.99994437,143.0,21.0,0.0
398,2023-01-30_23h45.21.772,idm-v2,2022.2.4,Win32,40.01760775,cpdm,149.0,1.0,,task,1.5,0.025,high_vol_low_risk,1.0,high,9.0,p,0.4044,1.277,1.595075812,144.0,148.0,0.0
399,2023-01-30_23h45.21.772,idm-v2,2022.2.4,Win32,40.01760775,cpdm,161.0,1.0,,task,4.0,0.15,high_vol_low_risk,1.0,high,9.0,p,0.4545,1.0973,2.532989786,145.0,160.0,0.0
400,2023-01-30_23h45.21.772,idm-v2,2022.2.4,Win32,40.01760775,cpdm,128.0,1.0,,task,0.0,0.25,high_vol_low_risk,0.0,low,8.0,l,0.5545,0.9288,2.576275553,146.0,127.0,0.0
401,2023-01-30_23h45.21.772,idm-v2,2022.2.4,Win32,40.01760775,cpdm,189.0,0.0,,task,-0.5,0.1,high_vol_low_risk,0.0,low,2.0,l,0.6794,0.7244,2.703082679,147.0,188.0,0.0
402,2023-01-30_23h45.21.772,idm-v2,2022.2.4,Win32,40.01760775,cpdm,167.0,1.0,,task,2.0,0.15,high_vol_low_risk,1.0,high,9.0,p,0.4296,1.2592,2.368836222,148.0,166.0,0.0
403,2023-01-30_23h45.21.772,idm-v2,2022.2.4,Win32,40.01760775,cpdm,11.0,1.0,,task,-3.0,0.025,high_vol_low_risk,0.0,low,8.0,a,0.8779,0.7835,0.97138853,149.0,10.0,0.0
404,2023-01-30_23h45.21.772,idm-v2,2022.2.4,Win32,40.01760775,cpdm,177.0,1.0,,task,-4.5,0.15,high_vol_low_risk,1.0,high,9.0,q,0.3216,1.3536,1.800899788,150.0,176.0,0.0
405,2023-01-30_23h45.21.772,idm-v2,2022.2.4,Win32,40.01760775,cpdm,34.0,1.0,,task,-1.5,0.1,high_vol_low_risk,0.0,low,8.0,a,0.7109,0.9661,2.577096713,151.0,33.0,0.0
406,2023-01-30_23h45.21.772,idm-v2,2022.2.4,Win32,40.01760775,cpdm,26.0,1.0,,task,3.5,0.2,high_vol_low_risk,1.0,high,9.0,p,0.4048,1.2706,2.856891367,152.0,25.0,0.0
407,2023-01-30_23h45.21.772,idm-v2,2022.2.4,Win32,40.01760775,cpdm,132.0,1.0,,task,2.5,0.2,high_vol_low_risk,1.0,high,9.0,p,0.3557,1.2074,1.233067369,153.0,131.0,0.0
408,2023-01-30_23h45.21.772,idm-v2,2022.2.4,Win32,40.01760775,cpdm,56.0,1.0,,task,-2.0,0.2,high_vol_low_risk,0.0,low,8.0,a,1.1827,0.5011,2.091627021,154.0,55.0,0.0
409,2023-01-30_23h45.21.772,idm-v2,2022.2.4,Win32,40.01760775,cpdm,100.0,1.0,,task,2.5,0.05,high_vol_low_risk,0.0,low,8.0,l,0.6795,1.0188,1.833166366,155.0,99.0,0.0
410,2023-01-30_23h45.21.772,idm-v2,2022.2.4,Win32,40.01760775,cpdm,200.0,1.0,,task,2.5,0.1,high_vol_low_risk,0.0,low,8.0,l,0.4744,1.2052,1.661045121,156.0,199.0,0.0
411,2023-01-30_23h45.21.772,idm-v2,2022.2.4,Win32,40.01760775,cpdm,70.0,1.0,,task,-1.5,0.15,high_vol_low_risk,0.0,low,8.0,a,0.884,0.8158,0.960080398,157.0,69.0,0.0
412,2023-01-30_23h45.21.772,idm-v2,2022.2.4,Win32,40.01760775,cpdm,115.0,1.0,,task,4.5,0.2,high_vol_low_risk,1.0,high,9.0,p,0.4504,1.2248,2.148027485,158.0,114.0,1.0
413,2023-01-30_23h45.21.772,idm-v2,2022.2.4,Win32,40.01760775,cpdm,156.0,1.0,,task,-2.5,0.15,high_vol_low_risk,1.0,high,9.0,q,0.3573,1.3427,1.400357393,159.0,155.0,0.0
414,2023-01-30_23h45.21.772,idm-v2,2022.2.4,Win32,40.01760775,cpdm,5.0,1.0,,task,0.5,0.25,high_vol_low_risk,0.0,low,8.0,l,0.7295,0.9584,1.750304152,160.0,4.0,0.0
415,2023-01-30_23h45.21.772,idm-v2,2022.2.4,Win32,40.01760775,cpdm,183.0,1.0,,task,-0.5,0.25,high_vol_low_risk,0.0,low,8.0,a,0.7042,0.971,2.503212317,161.0,182.0,0.0
416,2023-01-30_23h45.21.772,idm-v2,2022.2.4,Win32,40.01760775,cpdm,110.0,1.0,,task,-2.5,0.25,high_vol_low_risk,1.0,high,9.0,q,0.4546,1.2453,2.188589286,162.0,109.0,0.0
417,2023-01-30_23h45.21.772,idm-v2,2022.2.4,Win32,40.01760775,cpdm,186.0,0.0,,task,0.5,0.2,high_vol_low_risk,0.0,low,2.0,a,0.7786,0.8914,1.145590163,163.0,185.0,0.0
418,2023-01-30_23h45.21.772,idm-v2,2022.2.4,Win32,40.01760775,cpdm,163.0,1.0,,task,1.5,0.2,high_vol_low_risk,0.0,low,8.0,l,1.1791,0.4955,0.843298284,164.0,162.0,0.0
419,2023-01-30_23h45.21.772,idm-v2,2022.2.4,Win32,40.01760775,cpdm,138.0,1.0,,task,-1.5,0.025,high_vol_low_risk,0.0,low,8.0,a,0.7849,0.9151,1.922242432,165.0,137.0,0.0
420,2023-01-30_23h45.21.772,idm-v2,2022.2.4,Win32,40.01760775,cpdm,157.0,0.0,,task,3.0,0.025,high_vol_low_risk,0.0,low,2.0,a,1.2552,0.4199,1.626283166,166.0,156.0,0.0
421,2023-01-30_23h45.21.772,idm-v2,2022.2.4,Win32,40.01760775,cpdm,109.0,1.0,,task,-3.0,0.15,high_vol_low_risk,1.0,high,9.0,q,0.5823,1.0929,1.597314426,167.0,108.0,0.0
422,2023-01-30_23h45.21.772,idm-v2,2022.2.4,Win32,40.01760775,cpdm,170.0,1.0,,task,-0.5,0.1,high_vol_low_risk,0.0,low,8.0,a,0.6292,1.0464,1.54474256,168.0,169.0,0.0
423,2023-01-30_23h45.21.772,idm-v2,2022.2.4,Win32,40.01760775,cpdm,57.0,1.0,,task,4.5,0.1,high_vol_low_risk,1.0,high,9.0,p,0.4295,1.2459,2.20044937,169.0,56.0,0.0
424,2023-01-30_23h45.21.772,idm-v2,2022.2.4,Win32,40.01760775,cpdm,182.0,1.0,,task,-1.5,0.2,high_vol_low_risk,0.0,low,8.0,a,1.0287,0.6467,0.942030602,170.0,181.0,0.0
425,2023-01-30_23h45.21.772,idm-v2,2022.2.4,Win32,40.01760775,cpdm,37.0,1.0,,task,-3.5,0.1,high_vol_low_risk,0.0,low,8.0,a,0.5794,1.1084,1.694060341,171.0,36.0,0.0
426,2023-01-30_23h45.21.772,idm-v2,2022.2.4,Win32,40.01760775,cpdm,198.0,0.0,,task,-1.0,0.1,high_vol_low_risk,0.0,low,2.0,l,1.2109,0.4891,0.875594481,172.0,197.0,0.0
427,2023-01-30_23h45.21.772,idm-v2,2022.2.4,Win32,40.01760775,cpdm,29.0,1.0,,task,-1.0,0.15,high_vol_low_risk,0.0,low,8.0,a,0.8954,0.7922,1.346480752,173.0,28.0,0.0
428,2023-01-30_23h45.21.772,idm-v2,2022.2.4,Win32,40.01760775,cpdm,36.0,1.0,,task,1.5,0.2,high_vol_low_risk,1.0,high,9.0,p,0.5537,1.1334,3.051078209,174.0,35.0,0.0
429,2023-01-30_23h45.21.772,idm-v2,2022.2.4,Win32,40.01760775,cpdm,20.0,1.0,,task,4.0,0.25,high_vol_low_risk,1.0,high,9.0,p,0.4053,1.1884,1.2238392,175.0,19.0,0.0
430,2023-01-30_23h45.21.772,idm-v2,2022.2.4,Win32,40.01760775,cpdm,85.0,1.0,,task,3.0,0.25,high_vol_low_risk,1.0,high,9.0,p,0.4055,1.2235,2.92543683,176.0,84.0,0.0
431,2023-01-30_23h45.21.772,idm-v2,2022.2.4,Win32,40.01760775,cpdm,19.0,1.0,,task,-1.0,0.05,high_vol_low_risk,0.0,low,8.0,a,0.9034,0.7813,1.851213852,177.0,18.0,0.0
432,2023-01-30_23h45.21.772,idm-v2,2022.2.4,Win32,40.01760775,cpdm,129.0,1.0,,task,-0.5,0.025,high_vol_low_risk,0.0,low,8.0,a,1.1427,0.5569,2.529128582,178.0,128.0,0.0
433,2023-01-30_23h45.21.772,idm-v2,2022.2.4,Win32,40.01760775,cpdm,127.0,1.0,,task,-1.0,0.2,high_vol_low_risk,0.0,low,8.0,a,0.8283,0.8475,2.053856118,179.0,126.0,0.0
434,2023-01-30_23h45.21.772,idm-v2,2022.2.4,Win32,40.01760775,cpdm,114.0,1.0,,task,-2.0,0.1,high_vol_low_risk,1.0,high,9.0,q,0.6795,1.0086,1.354373832,180.0,113.0,0.0
435,2023-01-30_23h45.21.772,idm-v2,2022.2.4,Win32,40.01760775,cpdm,155.0,1.0,,task,-2.0,0.025,high_vol_low_risk,0.0,low,8.0,a,0.9556,0.721,0.852869923,181.0,154.0,0.0
436,2023-01-30_23h45.21.772,idm-v2,2022.2.4,Win32,40.01760775,cpdm,66.0,1.0,,task,-5.0,0.25,high_vol_low_risk,1.0,high,9.0,q,0.6295,1.0586,2.050617175,182.0,65.0,1.0
437,2023-01-30_23h45.21.772,idm-v2,2022.2.4,Win32,40.01760775,cpdm,112.0,1.0,,task,3.0,0.05,high_vol_low_risk,1.0,high,9.0,p,1.0478,0.6275,0.998728392,183.0,111.0,0.0
438,2023-01-30_23h45.21.772,idm-v2,2022.2.4,Win32,40.01760775,cpdm,30.0,1.0,,task,5.0,0.2,high_vol_low_risk,1.0,high,9.0,p,0.5215,1.1549,2.556297866,184.0,29.0,1.0
439,2023-01-30_23h45.21.772,idm-v2,2022.2.4,Win32,40.01760775,cpdm,96.0,1.0,,task,1.0,0.1,high_vol_low_risk,0.0,low,8.0,l,0.7045,0.9706,1.596745234,185.0,95.0,0.0
440,2023-01-30_23h45.21.772,idm-v2,2022.2.4,Win32,40.01760775,cpdm,24.0,1.0,,task,3.5,0.1,high_vol_low_risk,1.0,high,9.0,p,0.4426,1.2383,2.971682324,186.0,23.0,0.0
441,2023-01-30_23h45.21.772,idm-v2,2022.2.4,Win32,40.01760775,cpdm,39.0,1.0,,task,2.5,0.025,high_vol_low_risk,0.0,low,8.0,l,0.7045,0.9714,1.136428185,187.0,38.0,0.0
442,2023-01-30_23h45.21.772,idm-v2,2022.2.4,Win32,40.01760775,cpdm,134.0,1.0,,task,0.0,0.05,high_vol_low_risk,0.0,low,8.0,a,1.4034,0.2835,2.233222501,188.0,133.0,0.0
443,2023-01-30_23h45.21.772,idm-v2,2022.2.4,Win32,40.01760775,cpdm,196.0,1.0,,task,1.5,0.05,high_vol_low_risk,0.0,low,8.0,l,1.1174,0.5608,2.44171539,189.0,195.0,0.0
444,2023-01-30_23h45.21.772,idm-v2,2022.2.4,Win32,40.01760775,cpdm,65.0,1.0,,task,-1.0,0.025,high_vol_low_risk,0.0,low,8.0,a,0.9297,0.746,2.461940891,190.0,64.0,0.0
445,2023-01-30_23h45.21.772,idm-v2,2022.2.4,Win32,40.01760775,cpdm,190.0,1.0,,task,2.5,0.1,high_vol_low_risk,1.0,high,9.0,p,0.5828,1.0933,1.170533745,191.0,189.0,0.0
446,2023-01-30_23h45.21.772,idm-v2,2022.2.4,Win32,40.01760775,cpdm,135.0,1.0,,task,-3.5,0.25,high_vol_low_risk,1.0,high,9.0,q,0.4089,1.2662,2.404813907,192.0,134.0,0.0
447,2023-01-30_23h45.21.772,idm-v2,2022.2.4,Win32,40.01760775,cpdm,25.0,1.0,,task,1.5,0.25,high_vol_low_risk,1.0,high,9.0,p,0.3767,1.0418,1.137450335,193.0,24.0,0.0
448,2023-01-30_23h45.21.772,idm-v2,2022.2.4,Win32,40.01760775,cpdm,152.0,1.0,,task,2.0,0.025,high_vol_low_risk,0.0,low,8.0,l,0.6779,0.9972,2.127128211,194.0,151.0,0.0
449,2023-01-30_23h45.21.772,idm-v2,2022.2.4,Win32,40.01760775,cpdm,103.0,1.0,,task,3.5,0.05,high_vol_low_risk,1.0,high,9.0,p,0.7245,0.961,2.030935452,195.0,102.0,0.0
450,2023-01-30_23h45.21.772,idm-v2,2022.2.4,Win32,40.01760775,cpdm,18.0,1.0,,task,2.0,0.05,high_vol_low_risk,1.0,high,9.0,p,0.4797,0.9143,1.676888786,196.0,17.0,0.0
451,2023-01-30_23h45.21.772,idm-v2,2022.2.4,Win32,40.01760775,cpdm,77.0,1.0,,task,1.5,0.05,high_vol_low_risk,0.0,low,8.0,l,0.4801,1.1953,1.834569974,197.0,76.0,0.0
452,2023-01-30_23h45.21.772,idm-v2,2022.2.4,Win32,40.01760775,cpdm,192.0,1.0,,task,1.5,0.15,high_vol_low_risk,1.0,high,9.0,p,0.6853,1.0147,2.241426155,198.0,191.0,0.0
453,2023-01-30_23h45.21.772,idm-v2,2022.2.4,Win32,40.01760775,cpdm,122.0,1.0,,task,4.5,0.25,high_vol_low_risk,1.0,high,9.0,p,0.3291,1.3576,3.260748473,199.0,121.0,1.0
455,2023-01-30_23h45.21.772,idm-v2,2022.2.4,Win32,40.01760775,cpdm,190.0,1.0,,task,1.0,0.05,low_vol_low_risk,0.0,low,8.0,l,1.5018,0.6234,1.174766901,0.0,189.0,0.0
456,2023-01-30_23h45.21.772,idm-v2,2022.2.4,Win32,40.01760775,cpdm,140.0,1.0,,task,-1.5,0.2,low_vol_low_risk,0.0,low,8.0,a,1.4353,0.1009,1.61525595,1.0,139.0,0.0
457,2023-01-30_23h45.21.772,idm-v2,2022.2.4,Win32,40.01760775,cpdm,43.0,1.0,,task,-3.5,0.2,low_vol_low_risk,1.0,high,9.0,q,0.603,1.086,1.590985299,2.0,42.0,0.0
458,2023-01-30_23h45.21.772,idm-v2,2022.2.4,Win32,40.01760775,cpdm,35.0,1.0,,task,-1.0,0.2,low_vol_low_risk,1.0,high,9.0,q,1.0295,0.6702,1.77317868,3.0,34.0,0.0
459,2023-01-30_23h45.21.772,idm-v2,2022.2.4,Win32,40.01760775,cpdm,28.0,1.0,,task,1.0,0.2,low_vol_low_risk,1.0,high,9.0,p,1.0771,0.6215,1.69779172,4.0,27.0,0.0
460,2023-01-30_23h45.21.772,idm-v2,2022.2.4,Win32,40.01760775,cpdm,137.0,1.0,,task,-3.0,0.2,low_vol_low_risk,1.0,high,9.0,q,0.4805,1.2137,2.917571764,5.0,136.0,0.0
461,2023-01-30_23h45.21.772,idm-v2,2022.2.4,Win32,40.01760775,cpdm,99.0,1.0,,task,-2.5,0.05,low_vol_low_risk,0.0,low,8.0,a,0.6546,1.0369,1.821077791,6.0,98.0,0.0
462,2023-01-30_23h45.21.772,idm-v2,2022.2.4,Win32,40.01760775,cpdm,47.0,1.0,,task,1.0,0.2,low_vol_low_risk,1.0,high,9.0,p,0.5295,1.1461,1.199248593,7.0,46.0,0.0
463,2023-01-30_23h45.21.772,idm-v2,2022.2.4,Win32,40.01760775,cpdm,55.0,1.0,,task,-3.0,0.05,low_vol_low_risk,0.0,low,8.0,a,0.6303,1.0463,2.442564209,8.0,54.0,0.0
464,2023-01-30_23h45.21.772,idm-v2,2022.2.4,Win32,40.01760775,cpdm,187.0,1.0,,task,3.5,0.05,low_vol_low_risk,1.0,high,9.0,p,0.4296,1.2702,2.995709662,9.0,186.0,0.0
465,2023-01-30_23h45.21.772,idm-v2,2022.2.4,Win32,40.01760775,cpdm,148.0,1.0,,task,0.5,0.05,low_vol_low_risk,0.0,low,8.0,l,0.529,1.1464,1.466600462,10.0,147.0,0.0
466,2023-01-30_23h45.21.772,idm-v2,2022.2.4,Win32,40.01760775,cpdm,123.0,1.0,,task,-4.5,0.05,low_vol_low_risk,1.0,high,9.0,q,0.7794,0.8956,1.366803333,11.0,122.0,0.0
467,2023-01-30_23h45.21.772,idm-v2,2022.2.4,Win32,40.01760775,cpdm,183.0,1.0,,task,-5.0,0.2,low_vol_low_risk,1.0,high,9.0,q,0.4297,1.2475,2.907936862,12.0,182.0,1.0
468,2023-01-30_23h45.21.772,idm-v2,2022.2.4,Win32,40.01760775,cpdm,141.0,1.0,,task,-2.0,0.05,low_vol_low_risk,0.0,low,8.0,a,0.5539,1.1461,2.744555368,13.0,140.0,0.0
469,2023-01-30_23h45.21.772,idm-v2,2022.2.4,Win32,40.01760775,cpdm,175.0,1.0,,task,3.5,0.2,low_vol_low_risk,1.0,high,9.0,p,0.2794,1.3964,3.255567792,14.0,174.0,0.0
470,2023-01-30_23h45.21.772,idm-v2,2022.2.4,Win32,40.01760775,cpdm,58.0,1.0,,task,-3.5,0.05,low_vol_low_risk,1.0,high,9.0,q,0.3792,1.3208,2.161972875,15.0,57.0,0.0
471,2023-01-30_23h45.21.772,idm-v2,2022.2.4,Win32,40.01760775,cpdm,3.0,1.0,,task,-5.0,0.05,low_vol_low_risk,1.0,high,9.0,q,0.4559,1.2353,3.142323928,16.0,2.0,0.0
472,2023-01-30_23h45.21.772,idm-v2,2022.2.4,Win32,40.01760775,cpdm,80.0,1.0,,task,-1.5,0.2,low_vol_low_risk,0.0,low,8.0,a,0.6995,0.9755,1.722907085,17.0,79.0,0.0
473,2023-01-30_23h45.21.772,idm-v2,2022.2.4,Win32,40.01760775,cpdm,25.0,1.0,,task,1.5,0.2,low_vol_low_risk,0.0,low,8.0,l,0.6102,1.0649,2.523357478,18.0,24.0,0.0
474,2023-01-30_23h45.21.772,idm-v2,2022.2.4,Win32,40.01760775,cpdm,193.0,1.0,,task,4.5,0.2,low_vol_low_risk,1.0,high,9.0,p,0.4295,1.251,3.136923056,19.0,192.0,1.0
475,2023-01-30_23h45.21.772,idm-v2,2022.2.4,Win32,40.01760775,cpdm,71.0,1.0,,task,-4.0,0.05,low_vol_low_risk,1.0,high,9.0,q,0.4046,1.2498,1.557400566,20.0,70.0,0.0
476,2023-01-30_23h45.21.772,idm-v2,2022.2.4,Win32,40.01760775,cpdm,192.0,0.0,,task,0.0,0.2,low_vol_low_risk,0.0,low,2.0,l,0.7047,0.983,1.720041962,21.0,191.0,0.0
477,2023-01-30_23h45.21.772,idm-v2,2022.2.4,Win32,40.01760775,cpdm,163.0,1.0,,task,-2.5,0.2,low_vol_low_risk,1.0,high,9.0,q,0.7482,0.942,2.640219071,22.0,162.0,0.0
478,2023-01-30_23h45.21.772,idm-v2,2022.2.4,Win32,40.01760775,cpdm,146.0,1.0,,task,4.5,0.05,low_vol_low_risk,1.0,high,9.0,p,0.4547,1.2205,1.774673989,23.0,145.0,0.0
479,2023-01-30_23h45.21.772,idm-v2,2022.2.4,Win32,40.01760775,cpdm,144.0,1.0,,task,-3.0,0.05,low_vol_low_risk,1.0,high,9.0,q,0.8045,0.8713,1.581097584,24.0,143.0,0.0
480,2023-01-30_23h45.21.772,idm-v2,2022.2.4,Win32,40.01760775,cpdm,191.0,1.0,,task,2.0,0.05,low_vol_low_risk,0.0,low,8.0,l,0.5541,1.1334,2.345028743,25.0,190.0,0.0
481,2023-01-30_23h45.21.772,idm-v2,2022.2.4,Win32,40.01760775,cpdm,154.0,1.0,,task,4.0,0.05,low_vol_low_risk,0.0,low,8.0,l,0.4464,1.2288,2.936609416,26.0,153.0,0.0
482,2023-01-30_23h45.21.772,idm-v2,2022.2.4,Win32,40.01760775,cpdm,11.0,0.0,,task,-1.5,0.05,low_vol_low_risk,0.0,low,2.0,l,1.1562,0.511,1.942081032,27.0,10.0,0.0
483,2023-01-30_23h45.21.772,idm-v2,2022.2.4,Win32,40.01760775,cpdm,65.0,1.0,,task,-2.5,0.2,low_vol_low_risk,1.0,high,9.0,q,0.7073,0.9927,1.24123983,28.0,64.0,0.0
484,2023-01-30_23h45.21.772,idm-v2,2022.2.4,Win32,40.01760775,cpdm,145.0,0.0,,task,-0.5,0.05,low_vol_low_risk,0.0,low,2.0,l,0.724,0.9744,1.884101679,29.0,144.0,0.0
485,2023-01-30_23h45.21.772,idm-v2,2022.2.4,Win32,40.01760775,cpdm,20.0,1.0,,task,-4.0,0.05,low_vol_low_risk,1.0,high,9.0,q,0.529,1.1701,1.768168418,30.0,19.0,0.0
486,2023-01-30_23h45.21.772,idm-v2,2022.2.4,Win32,40.01760775,cpdm,24.0,0.0,,task,0.0,0.05,low_vol_low_risk,0.0,low,2.0,a,0.7788,0.8982,2.293299553,31.0,23.0,0.0
487,2023-01-30_23h45.21.772,idm-v2,2022.2.4,Win32,40.01760775,cpdm,9.0,1.0,,task,0.5,0.2,low_vol_low_risk,0.0,low,8.0,l,0.5549,1.1211,1.754077972,32.0,8.0,0.0
488,2023-01-30_23h45.21.772,idm-v2,2022.2.4,Win32,40.01760775,cpdm,57.0,1.0,,task,5.0,0.2,low_vol_low_risk,1.0,high,9.0,p,0.4787,1.1964,1.982056104,33.0,56.0,1.0
489,2023-01-30_23h45.21.772,idm-v2,2022.2.4,Win32,40.01760775,cpdm,46.0,1.0,,task,1.0,0.05,low_vol_low_risk,0.0,low,8.0,l,0.6051,1.0714,1.152073303,34.0,45.0,0.0
490,2023-01-30_23h45.21.772,idm-v2,2022.2.4,Win32,40.01760775,cpdm,39.0,1.0,,task,-4.0,0.05,low_vol_low_risk,1.0,high,9.0,q,0.5547,1.1203,1.983151608,35.0,38.0,0.0
491,2023-01-30_23h45.21.772,idm-v2,2022.2.4,Win32,40.01760775,cpdm,119.0,1.0,,task,-5.0,0.05,low_vol_low_risk,1.0,high,9.0,q,0.4873,1.1878,2.213096951,36.0,118.0,0.0
492,2023-01-30_23h45.21.772,idm-v2,2022.2.4,Win32,40.01760775,cpdm,22.0,1.0,,task,1.0,0.05,low_vol_low_risk,0.0,low,8.0,l,0.605,1.0702,1.767626594,37.0,21.0,0.0
493,2023-01-30_23h45.21.772,idm-v2,2022.2.4,Win32,40.01760775,cpdm,4.0,1.0,,task,1.0,0.05,low_vol_low_risk,0.0,low,8.0,l,0.8028,0.8727,1.047738603,38.0,3.0,0.0
494,2023-01-30_23h45.21.772,idm-v2,2022.2.4,Win32,40.01760775,cpdm,76.0,1.0,,task,2.5,0.2,low_vol_low_risk,0.0,low,8.0,l,0.7032,0.9721,1.638839435,39.0,75.0,0.0
495,2023-01-30_23h45.21.772,idm-v2,2022.2.4,Win32,40.01760775,cpdm,19.0,1.0,,task,-3.5,0.05,low_vol_low_risk,1.0,high,9.0,q,0.6293,1.0696,1.840028944,40.0,18.0,0.0
496,2023-01-30_23h45.21.772,idm-v2,2022.2.4,Win32,40.01760775,cpdm,30.0,1.0,,task,-2.0,0.05,low_vol_low_risk,0.0,low,8.0,a,0.6037,1.0714,2.119494036,41.0,29.0,0.0
497,2023-01-30_23h45.21.772,idm-v2,2022.2.4,Win32,40.01760775,cpdm,37.0,1.0,,task,-4.0,0.05,low_vol_low_risk,0.0,low,8.0,a,0.6012,1.0987,2.741702196,42.0,36.0,0.0
498,2023-01-30_23h45.21.772,idm-v2,2022.2.4,Win32,40.01760775,cpdm,78.0,1.0,,task,3.0,0.2,low_vol_low_risk,0.0,low,8.0,l,0.5288,1.1466,3.016578425,43.0,77.0,0.0
499,2023-01-30_23h45.21.772,idm-v2,2022.2.4,Win32,40.01760775,cpdm,131.0,1.0,,task,-1.5,0.2,low_vol_low_risk,0.0,low,8.0,a,0.9042,0.7708,2.604115767,44.0,130.0,0.0
500,2023-01-30_23h45.21.772,idm-v2,2022.2.4,Win32,40.01760775,cpdm,54.0,1.0,,task,-4.0,0.05,low_vol_low_risk,1.0,high,9.0,q,0.4352,1.2508,2.203893728,45.0,53.0,0.0
501,2023-01-30_23h45.21.772,idm-v2,2022.2.4,Win32,40.01760775,cpdm,75.0,1.0,,task,4.5,0.2,low_vol_low_risk,1.0,high,9.0,p,0.4297,1.2458,2.845450959,46.0,74.0,1.0
502,2023-01-30_23h45.21.772,idm-v2,2022.2.4,Win32,40.01760775,cpdm,165.0,1.0,,task,3.0,0.05,low_vol_low_risk,0.0,low,8.0,l,0.6266,1.0487,2.045770552,47.0,164.0,0.0
503,2023-01-30_23h45.21.772,idm-v2,2022.2.4,Win32,40.01760775,cpdm,74.0,1.0,,task,4.5,0.05,low_vol_low_risk,1.0,high,9.0,p,0.6027,1.0709,2.028611674,48.0,73.0,0.0
504,2023-01-30_23h45.21.772,idm-v2,2022.2.4,Win32,40.01760775,cpdm,49.0,0.0,,task,0.0,0.05,low_vol_low_risk,0.0,low,2.0,l,0.7533,0.9228,1.418395033,49.0,48.0,0.0
505,2023-01-30_23h45.21.772,idm-v2,2022.2.4,Win32,40.01760775,cpdm,149.0,1.0,,task,-5.0,0.2,low_vol_low_risk,1.0,high,9.0,q,0.5026,1.1726,1.360712053,50.0,148.0,1.0
506,2023-01-30_23h45.21.772,idm-v2,2022.2.4,Win32,40.01760775,cpdm,51.0,1.0,,task,-1.0,0.2,low_vol_low_risk,1.0,high,9.0,q,0.6034,1.0734,1.67521686,51.0,50.0,0.0
507,2023-01-30_23h45.21.772,idm-v2,2022.2.4,Win32,40.01760775,cpdm,18.0,1.0,,task,-1.0,0.2,low_vol_low_risk,0.0,low,8.0,a,0.6801,0.995,2.900124481,52.0,17.0,0.0
508,2023-01-30_23h45.21.772,idm-v2,2022.2.4,Win32,40.01760775,cpdm,133.0,1.0,,task,-2.5,0.2,low_vol_low_risk,1.0,high,9.0,q,0.3584,1.3192,2.387717013,53.0,132.0,0.0
509,2023-01-30_23h45.21.772,idm-v2,2022.2.4,Win32,40.01760775,cpdm,102.0,1.0,,task,2.0,0.2,low_vol_low_risk,1.0,high,9.0,p,0.5557,1.1197,1.345495706,54.0,101.0,0.0
510,2023-01-30_23h45.21.772,idm-v2,2022.2.4,Win32,40.01760775,cpdm,103.0,1.0,,task,-4.5,0.2,low_vol_low_risk,1.0,high,9.0,q,0.4803,1.1948,2.843360281,55.0,102.0,1.0
511,2023-01-30_23h45.21.772,idm-v2,2022.2.4,Win32,40.01760775,cpdm,100.0,1.0,,task,-0.5,0.2,low_vol_low_risk,0.0,low,8.0,a,0.5238,1.1521,2.104791775,56.0,99.0,0.0
512,2023-01-30_23h45.21.772,idm-v2,2022.2.4,Win32,40.01760775,cpdm,179.0,1.0,,task,-3.0,0.2,low_vol_low_risk,1.0,high,9.0,q,0.379,1.3207,1.694734257,57.0,178.0,0.0
513,2023-01-30_23h45.21.772,idm-v2,2022.2.4,Win32,40.01760775,cpdm,5.0,1.0,,task,2.5,0.05,low_vol_low_risk,1.0,high,9.0,p,0.5284,1.1716,3.056860549,58.0,4.0,0.0
514,2023-01-30_23h45.21.772,idm-v2,2022.2.4,Win32,40.01760775,cpdm,151.0,1.0,,task,-2.5,0.05,low_vol_low_risk,0.0,low,8.0,a,0.8289,0.8711,1.105360941,59.0,150.0,0.0
515,2023-01-30_23h45.21.772,idm-v2,2022.2.4,Win32,40.01760775,cpdm,124.0,1.0,,task,3.5,0.05,low_vol_low_risk,0.0,low,8.0,l,0.7982,0.8859,0.982649786,60.0,123.0,0.0
516,2023-01-30_23h45.21.772,idm-v2,2022.2.4,Win32,40.01760775,cpdm,63.0,0.0,,task,-0.5,0.2,low_vol_low_risk,0.0,low,2.0,l,1.1236,0.5523,1.266147461,61.0,62.0,0.0
517,2023-01-30_23h45.21.772,idm-v2,2022.2.4,Win32,40.01760775,cpdm,16.0,1.0,,task,-3.5,0.05,low_vol_low_risk,0.0,low,8.0,a,0.8716,0.8068,2.404289335,62.0,15.0,0.0
518,2023-01-30_23h45.21.772,idm-v2,2022.2.4,Win32,40.01760775,cpdm,14.0,1.0,,task,-4.5,0.05,low_vol_low_risk,1.0,high,9.0,q,0.4037,1.2838,2.097569758,63.0,13.0,0.0
519,2023-01-30_23h45.21.772,idm-v2,2022.2.4,Win32,40.01760775,cpdm,171.0,1.0,,task,-5.0,0.2,low_vol_low_risk,1.0,high,9.0,q,0.4043,1.2957,2.549166042,64.0,170.0,1.0
520,2023-01-30_23h45.21.772,idm-v2,2022.2.4,Win32,40.01760775,cpdm,60.0,1.0,,task,0.5,0.05,low_vol_low_risk,0.0,low,8.0,l,0.6293,1.07,2.530362587,65.0,59.0,0.0
521,2023-01-30_23h45.21.772,idm-v2,2022.2.4,Win32,40.01760775,cpdm,8.0,1.0,,task,-2.5,0.05,low_vol_low_risk,1.0,high,9.0,q,0.7281,0.9664,1.020351012,66.0,7.0,0.0
522,2023-01-30_23h45.21.772,idm-v2,2022.2.4,Win32,40.01760775,cpdm,41.0,1.0,,task,-3.0,0.2,low_vol_low_risk,1.0,high,9.0,q,0.4577,1.2415,2.369296397,67.0,40.0,0.0
523,2023-01-30_23h45.21.772,idm-v2,2022.2.4,Win32,40.01760775,cpdm,166.0,1.0,,task,1.5,0.2,low_vol_low_risk,1.0,high,9.0,p,0.5045,1.1706,1.900999809,68.0,165.0,0.0
524,2023-01-30_23h45.21.772,idm-v2,2022.2.4,Win32,40.01760775,cpdm,45.0,1.0,,task,1.5,0.05,low_vol_low_risk,0.0,low,8.0,l,0.492,1.1941,3.080688629,69.0,44.0,0.0
525,2023-01-30_23h45.21.772,idm-v2,2022.2.4,Win32,40.01760775,cpdm,111.0,1.0,,task,3.0,0.05,low_vol_low_risk,0.0,low,8.0,l,0.4789,1.1963,2.238961907,70.0,110.0,0.0
526,2023-01-30_23h45.21.772,idm-v2,2022.2.4,Win32,40.01760775,cpdm,15.0,1.0,,task,0.5,0.2,low_vol_low_risk,0.0,low,8.0,l,0.4784,1.1968,2.630204132,71.0,14.0,0.0
527,2023-01-30_23h45.21.772,idm-v2,2022.2.4,Win32,40.01760775,cpdm,90.0,1.0,,task,-2.5,0.2,low_vol_low_risk,1.0,high,9.0,q,0.4043,1.2717,1.827956461,72.0,89.0,0.0
528,2023-01-30_23h45.21.772,idm-v2,2022.2.4,Win32,40.01760775,cpdm,26.0,1.0,,task,-4.5,0.2,low_vol_low_risk,1.0,high,9.0,q,0.4045,1.2713,2.504376648,73.0,25.0,1.0
529,2023-01-30_23h45.21.772,idm-v2,2022.2.4,Win32,40.01760775,cpdm,122.0,0.0,,task,0.0,0.05,low_vol_low_risk,0.0,low,2.0,l,0.7394,0.9357,1.870731411,74.0,121.0,0.0
530,2023-01-30_23h45.21.772,idm-v2,2022.2.4,Win32,40.01760775,cpdm,77.0,0.0,,task,-0.5,0.05,low_vol_low_risk,0.0,low,2.0,l,0.5277,1.1462,2.426323521,75.0,76.0,0.0
531,2023-01-30_23h45.21.772,idm-v2,2022.2.4,Win32,40.01760775,cpdm,69.0,1.0,,task,-3.0,0.05,low_vol_low_risk,0.0,low,8.0,a,0.5288,1.1592,2.808423694,76.0,68.0,0.0
532,2023-01-30_23h45.21.772,idm-v2,2022.2.4,Win32,40.01760775,cpdm,6.0,1.0,,task,-2.0,0.05,low_vol_low_risk,0.0,low,8.0,a,0.5045,1.1707,2.327578502,77.0,5.0,0.0
533,2023-01-30_23h45.21.772,idm-v2,2022.2.4,Win32,40.01760775,cpdm,126.0,1.0,,task,-3.5,0.2,low_vol_low_risk,1.0,high,9.0,q,0.3287,1.3713,2.362821865,78.0,125.0,0.0
534,2023-01-30_23h45.21.772,idm-v2,2022.2.4,Win32,40.01760775,cpdm,105.0,1.0,,task,-0.5,0.05,low_vol_low_risk,0.0,low,8.0,a,0.4862,1.1889,2.138050801,79.0,104.0,0.0
535,2023-01-30_23h45.21.772,idm-v2,2022.2.4,Win32,40.01760775,cpdm,83.0,1.0,,task,4.5,0.2,low_vol_low_risk,1.0,high,9.0,p,0.4309,1.2443,1.635937382,80.0,82.0,1.0
536,2023-01-30_23h45.21.772,idm-v2,2022.2.4,Win32,40.01760775,cpdm,155.0,1.0,,task,-5.0,0.05,low_vol_low_risk,1.0,high,9.0,q,0.3753,1.3246,2.505791894,81.0,154.0,0.0
537,2023-01-30_23h45.21.772,idm-v2,2022.2.4,Win32,40.01760775,cpdm,68.0,0.0,,task,-0.5,0.2,low_vol_low_risk,0.0,low,2.0,l,0.6981,0.9777,1.664475402,82.0,67.0,0.0
538,2023-01-30_23h45.21.772,idm-v2,2022.2.4,Win32,40.01760775,cpdm,106.0,1.0,,task,-0.5,0.2,low_vol_low_risk,0.0,low,8.0,a,1.1374,0.5626,1.689445839,83.0,105.0,0.0
539,2023-01-30_23h45.21.772,idm-v2,2022.2.4,Win32,40.01760775,cpdm,112.0,1.0,,task,4.0,0.2,low_vol_low_risk,1.0,high,9.0,p,0.7035,0.9957,1.126027832,84.0,111.0,0.0
540,2023-01-30_23h45.21.772,idm-v2,2022.2.4,Win32,40.01760775,cpdm,82.0,1.0,,task,-4.0,0.2,low_vol_low_risk,1.0,high,9.0,q,0.3328,1.3641,2.453847883,85.0,81.0,0.0
541,2023-01-30_23h45.21.772,idm-v2,2022.2.4,Win32,40.01760775,cpdm,48.0,1.0,,task,-2.0,0.05,low_vol_low_risk,0.0,low,8.0,a,0.6302,1.0449,2.720239842,86.0,47.0,0.0
542,2023-01-30_23h45.21.772,idm-v2,2022.2.4,Win32,40.01760775,cpdm,113.0,1.0,,task,1.5,0.05,low_vol_low_risk,0.0,low,8.0,l,0.4325,1.2552,1.7765359,87.0,112.0,0.0
543,2023-01-30_23h45.21.772,idm-v2,2022.2.4,Win32,40.01760775,cpdm,62.0,1.0,,task,3.0,0.05,low_vol_low_risk,0.0,low,8.0,l,0.5214,1.1581,2.938688245,88.0,61.0,0.0
544,2023-01-30_23h45.21.772,idm-v2,2022.2.4,Win32,40.01760775,cpdm,176.0,1.0,,task,2.5,0.2,low_vol_low_risk,1.0,high,9.0,p,0.5301,0.8988,1.852267976,89.0,175.0,0.0
545,2023-01-30_23h45.21.772,idm-v2,2022.2.4,Win32,40.01760775,cpdm,180.0,1.0,,task,3.5,0.2,low_vol_low_risk,1.0,high,9.0,p,0.4291,1.2596,1.655329124,90.0,179.0,0.0
546,2023-01-30_23h45.21.772,idm-v2,2022.2.4,Win32,40.01760775,cpdm,158.0,1.0,,task,4.0,0.2,low_vol_low_risk,1.0,high,9.0,p,0.2414,1.4339,2.688762481,91.0,157.0,0.0
547,2023-01-30_23h45.21.772,idm-v2,2022.2.4,Win32,40.01760775,cpdm,23.0,1.0,,task,0.5,0.2,low_vol_low_risk,0.0,low,8.0,l,0.6047,1.091,1.242704716,92.0,22.0,0.0
548,2023-01-30_23h45.21.772,idm-v2,2022.2.4,Win32,40.01760775,cpdm,52.0,1.0,,task,-2.0,0.2,low_vol_low_risk,0.0,low,8.0,a,0.6798,1.0194,1.800001665,93.0,51.0,0.0
549,2023-01-30_23h45.21.772,idm-v2,2022.2.4,Win32,40.01760775,cpdm,196.0,1.0,,task,-4.5,0.05,low_vol_low_risk,0.0,low,8.0,a,0.5542,1.1219,2.34188726,94.0,195.0,0.0
550,2023-01-30_23h45.21.772,idm-v2,2022.2.4,Win32,40.01760775,cpdm,72.0,1.0,,task,4.0,0.05,low_vol_low_risk,1.0,high,9.0,p,0.725,0.9547,1.805754461,95.0,71.0,0.0
551,2023-01-30_23h45.21.772,idm-v2,2022.2.4,Win32,40.01760775,cpdm,53.0,1.0,,task,2.0,0.2,low_vol_low_risk,1.0,high,9.0,p,0.6304,1.0449,2.664551478,96.0,52.0,0.0
552,2023-01-30_23h45.21.772,idm-v2,2022.2.4,Win32,40.01760775,cpdm,67.0,1.0,,task,-0.5,0.2,low_vol_low_risk,0.0,low,8.0,a,1.3965,0.2812,1.569303859,97.0,66.0,0.0
553,2023-01-30_23h45.21.772,idm-v2,2022.2.4,Win32,40.01760775,cpdm,143.0,1.0,,task,2.0,0.05,low_vol_low_risk,1.0,high,9.0,p,0.7302,0.945,2.189823244,98.0,142.0,0.0
554,2023-01-30_23h45.21.772,idm-v2,2022.2.4,Win32,40.01760775,cpdm,118.0,1.0,,task,5.0,0.2,low_vol_low_risk,1.0,high,9.0,p,0.4045,1.2822,2.884568028,99.0,117.0,1.0
555,2023-01-30_23h45.21.772,idm-v2,2022.2.4,Win32,40.01760775,cpdm,135.0,1.0,,task,-2.0,0.2,low_vol_low_risk,0.0,low,8.0,a,0.7042,0.9958,1.150223557,100.0,134.0,0.0
556,2023-01-30_23h45.21.772,idm-v2,2022.2.4,Win32,40.01760775,cpdm,109.0,1.0,,task,2.0,0.05,low_vol_low_risk,0.0,low,8.0,l,0.7483,0.9333,0.959225251,101.0,108.0,0.0
557,2023-01-30_23h45.21.772,idm-v2,2022.2.4,Win32,40.01760775,cpdm,81.0,1.0,,task,2.5,0.05,low_vol_low_risk,1.0,high,9.0,p,0.7809,0.8944,1.318034663,102.0,80.0,0.0
558,2023-01-30_23h45.21.772,idm-v2,2022.2.4,Win32,40.01760775,cpdm,96.0,1.0,,task,4.0,0.2,low_vol_low_risk,1.0,high,9.0,p,0.3678,1.3135,1.461399866,103.0,95.0,0.0
559,2023-01-30_23h45.21.772,idm-v2,2022.2.4,Win32,40.01760775,cpdm,61.0,1.0,,task,2.5,0.05,low_vol_low_risk,1.0,high,9.0,p,0.7295,0.9456,1.234388453,104.0,60.0,0.0
560,2023-01-30_23h45.21.772,idm-v2,2022.2.4,Win32,40.01760775,cpdm,56.0,1.0,,task,-1.0,0.2,low_vol_low_risk,0.0,low,8.0,a,0.7297,0.9452,2.259153806,105.0,55.0,0.0
561,2023-01-30_23h45.21.772,idm-v2,2022.2.4,Win32,40.01760775,cpdm,50.0,1.0,,task,1.0,0.2,low_vol_low_risk,0.0,low,8.0,l,1.2231,0.4753,2.037469968,106.0,49.0,0.0
562,2023-01-30_23h45.21.772,idm-v2,2022.2.4,Win32,40.01760775,cpdm,86.0,1.0,,task,-0.5,0.05,low_vol_low_risk,0.0,low,8.0,a,1.1854,0.2757,1.038919871,107.0,85.0,0.0
563,2023-01-30_23h45.21.772,idm-v2,2022.2.4,Win32,40.01760775,cpdm,186.0,1.0,,task,3.5,0.2,low_vol_low_risk,1.0,high,9.0,p,0.4189,1.2562,1.353969806,108.0,185.0,0.0
564,2023-01-30_23h45.21.772,idm-v2,2022.2.4,Win32,40.01760775,cpdm,188.0,1.0,,task,4.0,0.05,low_vol_low_risk,1.0,high,9.0,p,0.2786,1.3964,1.555782091,109.0,187.0,0.0
565,2023-01-30_23h45.21.772,idm-v2,2022.2.4,Win32,40.01760775,cpdm,157.0,1.0,,task,3.0,0.2,low_vol_low_risk,1.0,high,9.0,p,0.3048,1.3706,2.732329503,110.0,156.0,0.0
566,2023-01-30_23h45.21.772,idm-v2,2022.2.4,Win32,40.01760775,cpdm,95.0,1.0,,task,2.5,0.05,low_vol_low_risk,1.0,high,9.0,p,1.0804,0.3828,2.182953753,111.0,94.0,0.0
567,2023-01-30_23h45.21.772,idm-v2,2022.2.4,Win32,40.01760775,cpdm,177.0,1.0,,task,-2.5,0.05,low_vol_low_risk,0.0,low,8.0,a,0.7865,0.8887,2.626830904,112.0,176.0,0.0
568,2023-01-30_23h45.21.772,idm-v2,2022.2.4,Win32,40.01760775,cpdm,33.0,1.0,,task,3.5,0.05,low_vol_low_risk,1.0,high,9.0,p,0.4813,1.194,2.410770548,113.0,32.0,0.0
569,2023-01-30_23h45.21.772,idm-v2,2022.2.4,Win32,40.01760775,cpdm,110.0,0.0,,task,-1.5,0.05,low_vol_low_risk,0.0,low,2.0,l,0.7562,0.9337,2.765655783,114.0,109.0,0.0
570,2023-01-30_23h45.21.772,idm-v2,2022.2.4,Win32,40.01760775,cpdm,160.0,1.0,,task,3.0,0.2,low_vol_low_risk,1.0,high,9.0,p,0.4044,1.2696,2.766741633,115.0,159.0,0.0
571,2023-01-30_23h45.21.772,idm-v2,2022.2.4,Win32,40.01760775,cpdm,117.0,1.0,,task,3.0,0.2,low_vol_low_risk,1.0,high,9.0,p,0.3277,1.3711,2.876734352,116.0,116.0,0.0
572,2023-01-30_23h45.21.772,idm-v2,2022.2.4,Win32,40.01760775,cpdm,138.0,1.0,,task,5.0,0.2,low_vol_low_risk,1.0,high,9.0,p,0.3043,1.3719,1.47257239,117.0,137.0,1.0
573,2023-01-30_23h45.21.772,idm-v2,2022.2.4,Win32,40.01760775,cpdm,115.0,1.0,,task,-2.5,0.2,low_vol_low_risk,1.0,high,9.0,q,0.7799,0.8962,1.623794062,118.0,114.0,0.0
574,2023-01-30_23h45.21.772,idm-v2,2022.2.4,Win32,40.01760775,cpdm,114.0,1.0,,task,-4.5,0.2,low_vol_low_risk,1.0,high,9.0,q,0.3143,1.3619,3.229292637,119.0,113.0,1.0
575,2023-01-30_23h45.21.772,idm-v2,2022.2.4,Win32,40.01760775,cpdm,125.0,1.0,,task,0.0,0.2,low_vol_low_risk,0.0,low,8.0,l,0.6543,1.0209,2.121631628,120.0,124.0,0.0
576,2023-01-30_23h45.21.772,idm-v2,2022.2.4,Win32,40.01760775,cpdm,34.0,1.0,,task,-4.5,0.05,low_vol_low_risk,1.0,high,9.0,q,0.6304,1.0474,2.325729696,121.0,33.0,0.0
577,2023-01-30_23h45.21.772,idm-v2,2022.2.4,Win32,40.01760775,cpdm,94.0,1.0,,task,2.0,0.2,low_vol_low_risk,1.0,high,9.0,p,0.4784,1.1971,1.533536331,122.0,93.0,0.0
578,2023-01-30_23h45.21.772,idm-v2,2022.2.4,Win32,40.01760775,cpdm,178.0,1.0,,task,1.5,0.05,low_vol_low_risk,0.0,low,8.0,l,0.7776,0.9211,1.704846397,123.0,177.0,0.0
579,2023-01-30_23h45.21.772,idm-v2,2022.2.4,Win32,40.01760775,cpdm,36.0,1.0,,task,-5.0,0.2,low_vol_low_risk,1.0,high,9.0,q,0.4293,1.1261,2.038970708,124.0,35.0,1.0
580,2023-01-30_23h45.21.772,idm-v2,2022.2.4,Win32,40.01760775,cpdm,127.0,1.0,,task,4.0,0.05,low_vol_low_risk,1.0,high,9.0,p,0.43,1.2455,1.407823087,125.0,126.0,0.0
581,2023-01-30_23h45.21.772,idm-v2,2022.2.4,Win32,40.01760775,cpdm,168.0,1.0,,task,3.5,0.05,low_vol_low_risk,1.0,high,9.0,p,0.3906,1.2857,2.294320899,126.0,167.0,0.0
582,2023-01-30_23h45.21.772,idm-v2,2022.2.4,Win32,40.01760775,cpdm,73.0,1.0,,task,-3.5,0.2,low_vol_low_risk,1.0,high,9.0,q,0.3675,1.3088,2.528404412,127.0,72.0,0.0
583,2023-01-30_23h45.21.772,idm-v2,2022.2.4,Win32,40.01760775,cpdm,32.0,1.0,,task,-4.0,0.2,low_vol_low_risk,1.0,high,9.0,q,0.3038,1.3266,1.89312372,128.0,31.0,0.0
584,2023-01-30_23h45.21.772,idm-v2,2022.2.4,Win32,40.01760775,cpdm,164.0,0.0,,task,-1.0,0.05,low_vol_low_risk,0.0,low,2.0,l,0.5539,1.1461,1.776367424,129.0,163.0,0.0
585,2023-01-30_23h45.21.772,idm-v2,2022.2.4,Win32,40.01760775,cpdm,194.0,1.0,,task,4.5,0.05,low_vol_low_risk,1.0,high,9.0,p,0.3538,1.3456,1.619457864,130.0,193.0,0.0
586,2023-01-30_23h45.21.772,idm-v2,2022.2.4,Win32,40.01760775,cpdm,42.0,1.0,,task,-3.0,0.2,low_vol_low_risk,1.0,high,9.0,q,0.5086,1.1913,2.390174135,131.0,41.0,0.0
587,2023-01-30_23h45.21.772,idm-v2,2022.2.4,Win32,40.01760775,cpdm,153.0,1.0,,task,1.5,0.05,low_vol_low_risk,1.0,high,9.0,p,0.3551,1.3211,1.485401286,132.0,152.0,0.0
588,2023-01-30_23h45.21.772,idm-v2,2022.2.4,Win32,40.01760775,cpdm,17.0,1.0,,task,1.5,0.2,low_vol_low_risk,1.0,high,9.0,p,0.7539,0.9216,2.021991385,133.0,16.0,0.0
589,2023-01-30_23h45.21.772,idm-v2,2022.2.4,Win32,40.01760775,cpdm,27.0,1.0,,task,-3.5,0.05,low_vol_low_risk,1.0,high,9.0,q,0.5067,1.1693,2.239464578,134.0,26.0,0.0
590,2023-01-30_23h45.21.772,idm-v2,2022.2.4,Win32,40.01760775,cpdm,152.0,1.0,,task,-1.5,0.05,low_vol_low_risk,0.0,low,8.0,a,0.8252,0.8563,1.049945748,135.0,151.0,0.0
591,2023-01-30_23h45.21.772,idm-v2,2022.2.4,Win32,40.01760775,cpdm,1.0,1.0,,task,1.0,0.2,low_vol_low_risk,0.0,low,8.0,l,1.0498,0.6323,2.539191875,136.0,0.0,0.0
592,2023-01-30_23h45.21.772,idm-v2,2022.2.4,Win32,40.01760775,cpdm,98.0,0.0,,task,-1.0,0.05,low_vol_low_risk,0.0,low,2.0,l,0.5067,1.1684,1.992836417,137.0,97.0,0.0
593,2023-01-30_23h45.21.772,idm-v2,2022.2.4,Win32,40.01760775,cpdm,156.0,1.0,,task,-1.0,0.2,low_vol_low_risk,0.0,low,8.0,a,0.5214,1.1786,2.857225717,138.0,155.0,0.0
594,2023-01-30_23h45.21.772,idm-v2,2022.2.4,Win32,40.01760775,cpdm,159.0,1.0,,task,-3.0,0.2,low_vol_low_risk,1.0,high,9.0,q,0.3311,1.2386,3.191765214,139.0,158.0,0.0
595,2023-01-30_23h45.21.772,idm-v2,2022.2.4,Win32,40.01760775,cpdm,93.0,0.0,,task,0.0,0.2,low_vol_low_risk,0.0,low,2.0,l,0.9104,0.6883,1.620183587,140.0,92.0,0.0
596,2023-01-30_23h45.21.772,idm-v2,2022.2.4,Win32,40.01760775,cpdm,181.0,1.0,,task,-4.0,0.2,low_vol_low_risk,1.0,high,9.0,q,0.4283,1.2417,1.798165991,141.0,180.0,0.0
597,2023-01-30_23h45.21.772,idm-v2,2022.2.4,Win32,40.01760775,cpdm,129.0,1.0,,task,0.5,0.05,low_vol_low_risk,0.0,low,8.0,l,0.6258,1.0503,2.018401323,142.0,128.0,0.0
598,2023-01-30_23h45.21.772,idm-v2,2022.2.4,Win32,40.01760775,cpdm,40.0,0.0,,task,-0.5,0.05,low_vol_low_risk,0.0,low,2.0,l,0.6066,0.8232,2.686246683,143.0,39.0,0.0
599,2023-01-30_23h45.21.772,idm-v2,2022.2.4,Win32,40.01760775,cpdm,172.0,1.0,,task,2.0,0.05,low_vol_low_risk,1.0,high,9.0,p,0.3539,1.3214,3.071582195,144.0,171.0,0.0
600,2023-01-30_23h45.21.772,idm-v2,2022.2.4,Win32,40.01760775,cpdm,66.0,1.0,,task,3.0,0.2,low_vol_low_risk,1.0,high,9.0,p,0.3049,1.3706,3.118400941,145.0,65.0,0.0
601,2023-01-30_23h45.21.772,idm-v2,2022.2.4,Win32,40.01760775,cpdm,173.0,1.0,,task,-3.5,0.05,low_vol_low_risk,1.0,high,9.0,q,0.5566,1.1432,2.89783436,146.0,172.0,0.0
602,2023-01-30_23h45.21.772,idm-v2,2022.2.4,Win32,40.01760775,cpdm,107.0,1.0,,task,2.0,0.2,low_vol_low_risk,1.0,high,9.0,p,0.3538,1.3215,1.594075455,147.0,106.0,0.0
603,2023-01-30_23h45.21.772,idm-v2,2022.2.4,Win32,40.01760775,cpdm,120.0,1.0,,task,1.5,0.2,low_vol_low_risk,1.0,high,9.0,p,0.6041,1.0708,1.684730891,148.0,119.0,0.0
604,2023-01-30_23h45.21.772,idm-v2,2022.2.4,Win32,40.01760775,cpdm,170.0,1.0,,task,-4.0,0.2,low_vol_low_risk,1.0,high,9.0,q,0.5793,1.0961,2.100861314,149.0,169.0,0.0
605,2023-01-30_23h45.21.772,idm-v2,2022.2.4,Win32,40.01760775,cpdm,167.0,1.0,,task,5.0,0.05,low_vol_low_risk,1.0,high,9.0,p,0.3495,1.3265,2.366579004,150.0,166.0,0.0
606,2023-01-30_23h45.21.772,idm-v2,2022.2.4,Win32,40.01760775,cpdm,44.0,1.0,,task,-1.0,0.05,low_vol_low_risk,0.0,low,8.0,a,1.4799,0.1242,1.595349266,151.0,43.0,0.0
607,2023-01-30_23h45.21.772,idm-v2,2022.2.4,Win32,40.01760775,cpdm,70.0,1.0,,task,0.5,0.2,low_vol_low_risk,1.0,high,9.0,p,0.655,1.0206,1.022044853,152.0,69.0,0.0
608,2023-01-30_23h45.21.772,idm-v2,2022.2.4,Win32,40.01760775,cpdm,139.0,0.0,,task,-2.0,0.05,low_vol_low_risk,0.0,low,2.0,l,1.5301,0.1453,1.929842032,153.0,138.0,0.0
609,2023-01-30_23h45.21.772,idm-v2,2022.2.4,Win32,40.01760775,cpdm,104.0,1.0,,task,1.0,0.05,low_vol_low_risk,0.0,low,8.0,l,1.4063,0.2689,1.864828693,154.0,103.0,0.0
610,2023-01-30_23h45.21.772,idm-v2,2022.2.4,Win32,40.01760775,cpdm,121.0,1.0,,task,2.5,0.05,low_vol_low_risk,0.0,low,8.0,l,0.684,0.991,1.202531828,155.0,120.0,0.0
611,2023-01-30_23h45.21.772,idm-v2,2022.2.4,Win32,40.01760775,cpdm,128.0,1.0,,task,3.5,0.05,low_vol_low_risk,0.0,low,8.0,l,1.0006,0.6879,2.282124568,156.0,127.0,0.0
612,2023-01-30_23h45.21.772,idm-v2,2022.2.4,Win32,40.01760775,cpdm,182.0,1.0,,task,-4.5,0.2,low_vol_low_risk,1.0,high,9.0,q,0.4544,1.244,1.519014679,157.0,181.0,1.0
613,2023-01-30_23h45.21.772,idm-v2,2022.2.4,Win32,40.01760775,cpdm,199.0,1.0,,task,5.0,0.05,low_vol_low_risk,1.0,high,9.0,p,0.3812,1.2956,2.954778246,158.0,198.0,0.0
614,2023-01-30_23h45.21.772,idm-v2,2022.2.4,Win32,40.01760775,cpdm,89.0,1.0,,task,2.5,0.2,low_vol_low_risk,1.0,high,9.0,p,0.3311,1.3453,2.373867731,159.0,88.0,0.0
615,2023-01-30_23h45.21.772,idm-v2,2022.2.4,Win32,40.01760775,cpdm,31.0,1.0,,task,4.5,0.2,low_vol_low_risk,1.0,high,9.0,p,0.6601,1.0151,1.385039151,160.0,30.0,1.0
616,2023-01-30_23h45.21.772,idm-v2,2022.2.4,Win32,40.01760775,cpdm,38.0,1.0,,task,3.5,0.2,low_vol_low_risk,1.0,high,9.0,p,0.4796,1.1935,2.750829038,161.0,37.0,0.0
617,2023-01-30_23h45.21.772,idm-v2,2022.2.4,Win32,40.01760775,cpdm,200.0,1.0,,task,2.0,0.2,low_vol_low_risk,0.0,low,8.0,l,0.5308,1.1457,2.10552707,162.0,199.0,0.0
618,2023-01-30_23h45.21.772,idm-v2,2022.2.4,Win32,40.01760775,cpdm,132.0,1.0,,task,-2.5,0.05,low_vol_low_risk,0.0,low,8.0,a,0.7458,0.9375,1.015929469,163.0,131.0,0.0
619,2023-01-30_23h45.21.772,idm-v2,2022.2.4,Win32,40.01760775,cpdm,101.0,1.0,,task,2.0,0.05,low_vol_low_risk,0.0,low,8.0,l,0.6539,1.0208,2.18187873,164.0,100.0,0.0
620,2023-01-30_23h45.21.772,idm-v2,2022.2.4,Win32,40.01760775,cpdm,88.0,1.0,,task,4.5,0.05,low_vol_low_risk,1.0,high,9.0,p,0.5045,1.1708,1.842045735,165.0,87.0,0.0
621,2023-01-30_23h45.21.772,idm-v2,2022.2.4,Win32,40.01760775,cpdm,169.0,0.0,,task,-1.5,0.05,low_vol_low_risk,0.0,low,2.0,l,0.5287,1.1463,2.768050966,166.0,168.0,0.0
622,2023-01-30_23h45.21.772,idm-v2,2022.2.4,Win32,40.01760775,cpdm,198.0,0.0,,task,-1.0,0.05,low_vol_low_risk,0.0,low,2.0,l,0.4547,1.1224,3.079450945,167.0,197.0,0.0
623,2023-01-30_23h45.21.772,idm-v2,2022.2.4,Win32,40.01760775,cpdm,134.0,1.0,,task,5.0,0.2,low_vol_low_risk,1.0,high,9.0,p,1.0521,0.6457,1.590527783,168.0,133.0,1.0
624,2023-01-30_23h45.21.772,idm-v2,2022.2.4,Win32,40.01760775,cpdm,142.0,1.0,,task,0.0,0.2,low_vol_low_risk,0.0,low,8.0,l,0.5802,1.1198,2.158705997,169.0,141.0,0.0
625,2023-01-30_23h45.21.772,idm-v2,2022.2.4,Win32,40.01760775,cpdm,195.0,1.0,,task,1.5,0.2,low_vol_low_risk,0.0,low,8.0,l,0.4292,1.2468,1.495751059,170.0,194.0,0.0
626,2023-01-30_23h45.21.772,idm-v2,2022.2.4,Win32,40.01760775,cpdm,185.0,1.0,,task,-3.0,0.05,low_vol_low_risk,1.0,high,9.0,q,0.537,1.1382,2.504488525,171.0,184.0,0.0
627,2023-01-30_23h45.21.772,idm-v2,2022.2.4,Win32,40.01760775,cpdm,174.0,1.0,,task,-2.0,0.2,low_vol_low_risk,1.0,high,9.0,q,0.4602,1.2196,1.90296658,172.0,173.0,0.0
628,2023-01-30_23h45.21.772,idm-v2,2022.2.4,Win32,40.01760775,cpdm,21.0,1.0,,task,-3.5,0.2,low_vol_low_risk,1.0,high,9.0,q,0.398,1.2775,1.456090695,173.0,20.0,0.0
629,2023-01-30_23h45.21.772,idm-v2,2022.2.4,Win32,40.01760775,cpdm,147.0,1.0,,task,-4.0,0.2,low_vol_low_risk,1.0,high,9.0,q,0.3938,1.3046,2.341220802,174.0,146.0,0.0
630,2023-01-30_23h45.21.772,idm-v2,2022.2.4,Win32,40.01760775,cpdm,85.0,1.0,,task,-2.0,0.2,low_vol_low_risk,0.0,low,8.0,a,1.0554,0.3593,2.274553171,175.0,84.0,0.0
631,2023-01-30_23h45.21.772,idm-v2,2022.2.4,Win32,40.01760775,cpdm,87.0,0.0,,task,0.5,0.05,low_vol_low_risk,0.0,low,2.0,a,1.1787,0.4966,0.906564697,176.0,86.0,0.0
632,2023-01-30_23h45.21.772,idm-v2,2022.2.4,Win32,40.01760775,cpdm,184.0,1.0,,task,-1.5,0.05,low_vol_low_risk,0.0,low,8.0,a,1.429,0.2462,1.125060663,177.0,183.0,0.0
633,2023-01-30_23h45.21.772,idm-v2,2022.2.4,Win32,40.01760775,cpdm,92.0,0.0,,task,0.0,0.05,low_vol_low_risk,0.0,low,2.0,a,1.2881,0.3871,1.991900491,178.0,91.0,0.0
634,2023-01-30_23h45.21.772,idm-v2,2022.2.4,Win32,40.01760775,cpdm,79.0,1.0,,task,-1.5,0.2,low_vol_low_risk,0.0,low,8.0,a,0.7053,0.9892,2.01192747,179.0,78.0,0.0
635,2023-01-30_23h45.21.772,idm-v2,2022.2.4,Win32,40.01760775,cpdm,108.0,1.0,,task,-2.0,0.2,low_vol_low_risk,0.0,low,8.0,a,0.6543,1.045,2.363859562,180.0,107.0,0.0
636,2023-01-30_23h45.21.772,idm-v2,2022.2.4,Win32,40.01760775,cpdm,12.0,1.0,,task,2.5,0.2,low_vol_low_risk,1.0,high,9.0,p,0.5772,1.0979,2.39330561,181.0,11.0,0.0
637,2023-01-30_23h45.21.772,idm-v2,2022.2.4,Win32,40.01760775,cpdm,161.0,1.0,,task,3.0,0.05,low_vol_low_risk,1.0,high,9.0,p,0.5553,1.1231,2.872454058,182.0,160.0,0.0
638,2023-01-30_23h45.21.772,idm-v2,2022.2.4,Win32,40.01760775,cpdm,91.0,1.0,,task,4.0,0.2,low_vol_low_risk,1.0,high,9.0,p,0.3771,1.298,1.897636015,183.0,90.0,0.0
639,2023-01-30_23h45.21.772,idm-v2,2022.2.4,Win32,40.01760775,cpdm,10.0,1.0,,task,2.5,0.2,low_vol_low_risk,1.0,high,9.0,p,0.4373,1.2627,1.266728155,184.0,9.0,0.0
640,2023-01-30_23h45.21.772,idm-v2,2022.2.4,Win32,40.01760775,cpdm,97.0,1.0,,task,1.0,0.2,low_vol_low_risk,0.0,low,8.0,l,0.8714,0.8054,0.845453676,185.0,96.0,0.0
641,2023-01-30_23h45.21.772,idm-v2,2022.2.4,Win32,40.01760775,cpdm,150.0,1.0,,task,0.5,0.05,low_vol_low_risk,0.0,low,8.0,l,0.5984,1.0769,2.501281457,186.0,149.0,0.0
642,2023-01-30_23h45.21.772,idm-v2,2022.2.4,Win32,40.01760775,cpdm,130.0,1.0,,task,-3.5,0.2,low_vol_low_risk,1.0,high,9.0,q,0.4317,1.2443,2.977030679,187.0,129.0,0.0
643,2023-01-30_23h45.21.772,idm-v2,2022.2.4,Win32,40.01760775,cpdm,13.0,1.0,,task,4.0,0.05,low_vol_low_risk,0.0,low,8.0,l,0.6863,1.0127,1.601998112,188.0,12.0,0.0
644,2023-01-30_23h45.21.772,idm-v2,2022.2.4,Win32,40.01760775,cpdm,7.0,1.0,,task,-3.0,0.05,low_vol_low_risk,0.0,low,8.0,a,0.7315,0.9684,2.459993921,189.0,6.0,0.0
645,2023-01-30_23h45.21.772,idm-v2,2022.2.4,Win32,40.01760775,cpdm,64.0,1.0,,task,5.0,0.05,low_vol_low_risk,1.0,high,9.0,p,0.3751,1.3228,2.277352499,190.0,63.0,0.0
646,2023-01-30_23h45.21.772,idm-v2,2022.2.4,Win32,40.01760775,cpdm,29.0,1.0,,task,3.5,0.2,low_vol_low_risk,1.0,high,9.0,p,0.4826,1.2078,2.732795137,191.0,28.0,0.0
647,2023-01-30_23h45.21.772,idm-v2,2022.2.4,Win32,40.01760775,cpdm,189.0,1.0,,task,3.0,0.05,low_vol_low_risk,0.0,low,8.0,l,0.5001,1.1729,1.858205988,192.0,188.0,0.0
648,2023-01-30_23h45.21.772,idm-v2,2022.2.4,Win32,40.01760775,cpdm,197.0,1.0,,task,1.5,0.05,low_vol_low_risk,0.0,low,8.0,l,0.426,1.2697,2.194511707,193.0,196.0,0.0
649,2023-01-30_23h45.21.772,idm-v2,2022.2.4,Win32,40.01760775,cpdm,136.0,1.0,,task,-1.0,0.05,low_vol_low_risk,0.0,low,8.0,a,0.8396,0.8439,1.292987544,194.0,135.0,0.0
650,2023-01-30_23h45.21.772,idm-v2,2022.2.4,Win32,40.01760775,cpdm,116.0,1.0,,task,4.0,0.2,low_vol_low_risk,1.0,high,9.0,p,0.4569,1.2234,1.615990556,195.0,115.0,0.0
651,2023-01-30_23h45.21.772,idm-v2,2022.2.4,Win32,40.01760775,cpdm,84.0,1.0,,task,5.0,0.05,low_vol_low_risk,1.0,high,9.0,p,0.984,0.7156,2.143165392,196.0,83.0,0.0
652,2023-01-30_23h45.21.772,idm-v2,2022.2.4,Win32,40.01760775,cpdm,59.0,1.0,,task,-5.0,0.05,low_vol_low_risk,1.0,high,9.0,q,0.4303,1.2459,1.533342662,197.0,58.0,0.0
653,2023-01-30_23h45.21.772,idm-v2,2022.2.4,Win32,40.01760775,cpdm,162.0,1.0,,task,0.5,0.2,low_vol_low_risk,0.0,low,8.0,l,0.5276,1.1479,3.038688084,198.0,161.0,0.0
654,2023-01-30_23h45.21.772,idm-v2,2022.2.4,Win32,40.01760775,cpdm,2.0,1.0,,task,-1.5,0.2,low_vol_low_risk,0.0,low,8.0,a,0.7247,0.9753,1.655984374,199.0,1.0,0.0
656,2023-01-30_23h45.21.772,idm-v2,2022.2.4,Win32,40.01760775,cpdm,47.0,1.0,,task,5.0,0.25,high_vol_high_risk,1.0,high,13.0,p,0.3728,1.3267,2.372683337,0.0,46.0,1.0
657,2023-01-30_23h45.21.772,idm-v2,2022.2.4,Win32,40.01760775,cpdm,193.0,1.0,,task,-4.0,0.05,high_vol_high_risk,1.0,high,13.0,q,0.4302,1.2451,1.76073109,1.0,192.0,0.0
